time,ax,ay,az,atotal
0.008298873901367188,-0.04,0.2,-0.1,0.22
0.01114797592163086,0.06,0.22,-0.05,0.23
0.021199703216552734,0.18,0.12,-0.09,0.23
0.031044960021972656,0.24,0.04,-0.24,0.34
0.04518890380859375,0.25,-0.01,-0.24,0.34
0.054657936096191406,0.17,0.02,-0.16,0.23
0.06112098693847656,0.06,0.04,-0.07,0.1
0.07121896743774414,-0.11,0.01,-0.02,0.11
0.08126974105834961,-0.25,-0.03,0.01,0.25
0.09527087211608887,-0.27,-0.05,0.04,0.27
0.10541892051696777,-0.23,-0.03,0.08,0.24
0.11106491088867188,-0.12,0.01,0.09,0.15
0.1213529109954834,-0.02,0.03,0.07,0.07
0.13120698928833008,0.03,0.03,0.03,0.05
0.14531469345092773,0.09,0.05,0.0,0.1
0.15480995178222656,0.12,0.03,0.0,0.12
0.16111993789672852,0.1,0.03,-0.02,0.1
0.17124176025390625,0.08,0.01,-0.03,0.08
0.18123769760131836,0.04,0.02,-0.01,0.04
0.19539284706115723,0.0,0.01,-0.01,0.01
0.20471692085266113,-0.05,0.01,0.0,0.05
0.21126699447631836,-0.08,0.02,-0.01,0.08
0.22123289108276367,-0.08,0.02,-0.02,0.08
0.23122191429138184,-0.08,0.02,-0.04,0.09
0.24545884132385254,-0.05,0.01,-0.05,0.07
0.25517702102661133,0.02,0.0,-0.03,0.03
0.26133298873901367,0.06,0.02,0.0,0.06
0.2713909149169922,0.05,0.05,0.0,0.07
0.28147172927856445,0.06,0.04,0.01,0.07
0.29692983627319336,0.04,0.02,0.01,0.04
0.3052968978881836,0.01,0.02,0.01,0.02
0.3113129138946533,-0.05,0.01,0.01,0.05
0.321469783782959,-0.11,0.01,0.01,0.11
0.3317289352416992,-0.1,-0.01,0.04,0.1
0.3461418151855469,-0.09,-0.02,0.03,0.09
0.3552370071411133,-0.04,0.0,0.03,0.05
0.3615097999572754,-0.01,0.03,0.0,0.03
0.3716869354248047,0.0,0.04,-0.01,0.04
0.38152170181274414,0.04,0.04,-0.03,0.06
0.3955419063568115,0.04,0.04,-0.04,0.06
0.4042239189147949,0.04,0.02,-0.04,0.06
0.41139984130859375,0.03,0.02,-0.03,0.04
0.4217958450317383,-0.02,0.01,-0.01,0.02
0.4315168857574463,-0.04,-0.01,0.03,0.05
0.44557690620422363,-0.04,0.0,0.01,0.04
0.4546327590942383,-0.03,0.01,0.0,0.03
0.46151304244995117,-0.02,0.01,-0.02,0.03
0.4717988967895508,-0.01,0.02,-0.08,0.08
0.481813907623291,0.0,0.04,-0.09,0.09
0.4956197738647461,0.02,0.05,-0.07,0.08
0.5053577423095703,0.06,0.02,-0.03,0.06
0.5115048885345459,0.07,0.02,0.01,0.07
0.5219168663024902,0.05,0.0,0.03,0.05
0.5317988395690918,0.02,0.01,0.04,0.04
0.5456578731536865,-0.03,0.01,0.03,0.04
0.5552968978881836,-0.08,0.01,0.01,0.08
0.56184983253479,-0.1,0.01,0.02,0.1
0.5719199180603027,-0.07,0.0,0.01,0.07
0.581906795501709,-0.03,0.02,0.0,0.03
0.5959477424621582,0.02,0.04,-0.02,0.04
0.604719877243042,0.03,0.03,-0.05,0.06
0.6116189956665039,0.03,0.0,-0.06,0.06
0.6219377517700195,0.03,0.02,-0.04,0.05
0.6318240165710449,0.02,0.02,-0.02,0.03
0.6459598541259766,0.0,0.03,-0.01,0.03
0.65470290184021,-0.02,0.03,-0.01,0.03
0.6616597175598145,-0.04,0.03,-0.01,0.05
0.6718230247497559,-0.04,0.02,-0.01,0.04
0.6820838451385498,-0.07,0.0,-0.02,0.07
0.6958417892456055,-0.07,0.0,-0.03,0.07
0.7045388221740723,-0.03,0.03,-0.04,0.05
0.7117948532104492,0.04,0.05,-0.04,0.07
0.7221639156341553,0.1,0.07,0.01,0.12
0.7320408821105957,0.14,0.04,0.05,0.15
0.7461256980895996,0.11,0.05,0.06,0.13
0.7549419403076172,0.04,0.02,0.03,0.05
0.7619647979736328,-0.1,-0.01,-0.03,0.1
0.7721529006958008,-0.24,-0.03,-0.05,0.24
0.782160758972168,-0.28,-0.04,-0.08,0.29
0.7961897850036621,-0.21,-0.02,-0.06,0.21
0.8055558204650879,-0.06,-0.01,0.0,0.06
0.8122119903564453,0.12,0.02,0.05,0.13
0.8223199844360352,0.21,0.1,0.03,0.23
0.83306884765625,0.12,0.1,-0.04,0.16
0.847092866897583,-0.05,0.03,-0.04,0.07
0.8561878204345703,-0.18,-0.05,-0.01,0.18
0.8620567321777344,-0.26,-0.05,0.01,0.26
0.8723540306091309,-0.21,-0.02,0.0,0.21
0.8823137283325195,-0.08,0.0,0.07,0.1
0.8966259956359863,-0.02,-0.01,0.16,0.16
0.9050688743591309,-0.02,0.0,0.13,0.13
0.9121139049530029,-0.07,0.01,0.07,0.09
0.922325849533081,-0.16,-0.02,0.01,0.16
0.9323158264160156,-0.17,-0.03,-0.06,0.18
0.9466099739074707,-0.09,-0.02,-0.09,0.12
0.9548478126525879,0.06,0.02,-0.08,0.1
0.962263822555542,0.18,0.06,-0.05,0.19
0.9723129272460938,0.21,0.07,-0.05,0.22
0.9824588298797607,0.19,0.06,-0.02,0.2
0.9963107109069824,0.09,0.02,0.0,0.09
1.0045838356018066,-0.02,0.0,0.02,0.02
1.0121338367462158,-0.09,-0.02,0.02,0.09
1.0225939750671387,-0.16,-0.01,0.01,0.16
1.0322637557983398,-0.15,-0.01,0.01,0.15
1.046543836593628,-0.09,-0.02,0.03,0.09
1.0545828342437744,-0.02,-0.02,0.05,0.05
1.0623488426208496,0.04,0.02,0.02,0.04
1.0723466873168945,0.08,0.04,0.0,0.08
1.0825908184051514,0.09,0.06,-0.03,0.11
1.096510887145996,0.05,0.03,-0.06,0.08
1.1046428680419922,0.04,0.0,-0.07,0.08
1.1123909950256348,0.03,0.0,-0.09,0.09
1.122668743133545,0.06,0.01,-0.06,0.08
1.132429838180542,0.06,0.06,-0.04,0.09
1.1464428901672363,0.08,0.06,-0.01,0.1
1.1544499397277832,0.07,0.0,0.03,0.07
1.1625308990478516,0.01,-0.01,-0.02,0.02
1.1726469993591309,-0.08,-0.02,-0.05,0.09
1.1827497482299805,-0.16,0.01,-0.04,0.16
1.1965808868408203,-0.14,0.01,-0.01,0.14
1.204880714416504,-0.05,0.02,0.0,0.05
1.212350845336914,0.05,0.03,0.0,0.05
1.2226548194885254,0.11,0.04,0.02,0.11
1.2327079772949219,0.14,0.02,-0.01,0.14
1.2465100288391113,0.08,0.02,-0.03,0.08
1.2543907165527344,0.02,0.02,-0.04,0.04
1.2625548839569092,-0.02,0.02,-0.05,0.05
1.2726969718933105,0.01,0.02,-0.08,0.08
1.282742977142334,0.06,0.02,-0.04,0.07
1.296724796295166,0.09,0.04,0.04,0.1
1.3046228885650635,0.12,0.07,0.11,0.17
1.312605857849121,0.11,0.07,0.1,0.16
1.3227729797363281,0.02,0.04,0.05,0.06
1.3327717781066895,-0.06,0.0,0.01,0.06
1.347245693206787,-0.12,-0.04,0.02,0.12
1.3551087379455566,-0.1,-0.03,0.03,0.1
1.3627839088439941,-0.02,0.01,-0.01,0.02
1.3727538585662842,0.06,0.04,-0.06,0.09
1.3827428817749023,0.09,0.01,-0.07,0.11
1.396812915802002,0.1,0.0,-0.08,0.12
1.4044437408447266,0.08,-0.01,-0.08,0.11
1.4127848148345947,0.02,0.02,-0.04,0.04
1.4227089881896973,0.0,0.02,0.01,0.02
1.4325268268585205,0.0,0.02,0.06,0.06
1.4468119144439697,0.0,0.02,0.08,0.08
1.4543638229370117,-0.04,0.0,0.09,0.09
1.4629638195037842,-0.06,0.01,0.08,0.1
1.472970962524414,-0.07,0.02,0.04,0.08
1.4830060005187988,-0.05,0.03,-0.02,0.06
1.4967889785766602,0.01,0.05,-0.06,0.07
1.5046968460083008,0.07,0.03,-0.09,0.11
1.5128827095031738,0.12,0.03,-0.08,0.14
1.5231738090515137,0.09,0.01,-0.09,0.12
1.5329158306121826,0.05,0.01,-0.1,0.11
1.546973705291748,-0.03,0.01,-0.08,0.08
1.5547900199890137,-0.05,0.0,-0.07,0.08
1.5629048347473145,-0.06,0.0,-0.03,0.06
1.5730199813842773,-0.01,-0.01,-0.04,0.04
1.5836777687072754,0.0,0.01,-0.04,0.04
1.5972309112548828,0.02,0.06,-0.01,0.06
1.6057078838348389,0.05,0.09,0.02,0.1
1.6130247116088867,0.08,0.13,-0.04,0.15
1.6233229637145996,0.06,0.18,-0.06,0.19
1.6338608264923096,-0.07,0.08,0.01,0.1
1.6471147537231445,-0.2,-0.05,0.02,0.2
1.6553208827972412,-0.13,-0.06,0.16,0.21
1.6631569862365723,0.09,-0.03,0.08,0.12
1.6731629371643066,0.05,-0.05,-0.23,0.24
1.6841087341308594,-0.04,-0.03,-0.27,0.27
1.697354793548584,0.02,0.0,-0.05,0.05
1.7056958675384521,0.13,0.04,0.07,0.15
1.7131757736206055,0.15,0.05,0.04,0.16
1.7232117652893066,0.11,0.05,-0.04,0.12
1.7338037490844727,0.09,0.04,-0.06,0.11
1.7474548816680908,0.03,0.03,0.0,0.04
1.7559199333190918,-0.01,0.04,0.04,0.05
1.7632946968078613,-0.04,0.02,0.01,0.04
1.7732398509979248,-0.05,0.03,-0.07,0.09
1.784101963043213,-0.02,0.03,-0.09,0.09
1.7973759174346924,-0.01,0.02,-0.13,0.13
1.8057317733764648,-0.03,0.03,-0.12,0.12
1.8131909370422363,0.01,0.03,-0.06,0.06
1.823239803314209,0.06,0.03,0.0,0.06
1.8335657119750977,0.05,0.03,0.0,0.05
1.847336769104004,0.02,0.02,-0.01,0.03
1.8561887741088867,-0.02,0.01,-0.01,0.02
1.8632616996765137,-0.07,0.0,-0.01,0.07
1.8736019134521484,-0.14,-0.01,0.03,0.14
1.8844058513641357,-0.25,-0.03,0.07,0.26
1.8986918926239014,-0.23,-0.03,0.05,0.23
1.9089889526367188,-0.13,0.0,0.03,0.13
1.9134407043457031,-0.08,0.03,-0.03,0.09
1.9236078262329102,-0.07,0.03,-0.11,0.13
1.9342288970947266,-0.05,0.05,-0.21,0.22
1.9477198123931885,-0.02,0.03,-0.28,0.28
1.9562077522277832,0.01,0.04,-0.3,0.3
1.9634637832641602,0.07,0.06,-0.26,0.27
1.9736018180847168,0.15,0.07,-0.16,0.23
1.9839818477630615,0.16,0.06,-0.03,0.17
1.9968419075012207,0.07,0.07,0.08,0.12
2.004823923110962,-0.03,0.12,0.08,0.14
2.0136778354644775,-0.15,0.14,0.07,0.21
2.02376389503479,-0.29,0.17,0.0,0.33
2.0339279174804688,-0.42,0.16,-0.07,0.45
2.0469727516174316,-0.44,0.16,-0.13,0.48
2.054736852645874,-0.29,0.16,-0.18,0.37
2.0638248920440674,-0.11,0.19,-0.2,0.29
2.0738630294799805,0.03,0.23,-0.08,0.24
2.0839338302612305,0.12,0.3,0.1,0.33
2.097562789916992,0.24,0.46,0.26,0.58
2.1055989265441895,0.37,0.63,0.33,0.8
2.1138267517089844,0.49,0.84,0.1,0.97
2.123795986175537,0.42,0.91,-0.11,1.0
2.1338977813720703,0.2,0.86,-0.24,0.91
2.147394895553589,-0.02,0.78,-0.33,0.84
2.15543270111084,-0.05,0.66,-0.44,0.79
2.1639158725738525,0.05,0.56,-0.59,0.81
2.1737637519836426,0.23,0.49,-0.57,0.78
2.1838958263397217,0.48,0.37,-0.55,0.81
2.1979379653930664,0.66,0.29,-0.69,0.99
2.206674814224243,0.76,0.18,-0.86,1.16
2.2137198448181152,0.76,0.15,-0.81,1.12
2.2238407135009766,0.78,0.15,-0.63,1.01
2.233778953552246,0.82,0.23,-0.18,0.87
2.2472188472747803,1.04,0.22,0.3,1.1
2.2555127143859863,1.37,0.07,0.45,1.44
2.2639307975769043,1.36,-0.13,0.54,1.46
2.2739288806915283,0.92,-0.37,0.56,1.13
2.28393292427063,0.43,-0.45,0.57,0.84
2.2972450256347656,0.22,-0.37,0.6,0.73
2.3057138919830322,0.02,-0.39,0.72,0.81
2.313983917236328,-0.22,-0.35,0.95,1.03
2.323910713195801,-0.21,-0.17,0.95,0.98
2.3341827392578125,-0.2,0.17,0.79,0.83
2.348508834838867,-0.33,0.13,0.65,0.74
2.3570218086242676,-0.39,0.08,0.5,0.63
2.3640270233154297,-0.42,-0.07,0.39,0.57
2.373966693878174,-0.37,-0.25,0.35,0.56
2.383924961090088,-0.24,-0.35,0.15,0.45
2.397260904312134,-0.06,-0.31,-0.11,0.33
2.4056308269500732,0.2,-0.39,-0.38,0.58
2.414057731628418,0.43,-0.72,-0.64,1.05
2.424154758453369,0.67,-0.84,-0.82,1.35
2.4341328144073486,0.87,-0.91,-0.91,1.55
2.4482507705688477,0.99,-0.94,-0.76,1.56
2.456824779510498,1.07,-0.91,-0.51,1.49
2.4641828536987305,1.02,-0.94,-0.59,1.5
2.474236011505127,0.69,-1.01,-0.97,1.56
2.484351873397827,0.36,-1.09,-1.05,1.55
2.498236894607544,0.28,-1.13,-0.89,1.46
2.506777763366699,0.42,-1.09,-0.76,1.39
2.5142407417297363,0.5,-1.12,-0.81,1.46
2.5242748260498047,0.33,-1.27,-0.82,1.54
2.5341408252716064,0.03,-1.44,-0.62,1.56
2.5482397079467773,-0.29,-1.52,-0.38,1.59
2.5568809509277344,-0.54,-1.57,-0.09,1.66
2.564291000366211,-0.71,-1.62,0.23,1.78
2.5743248462677,-1.09,-1.48,0.5,1.9
2.584484815597534,-2.07,-0.94,0.89,2.44
2.598270893096924,-3.26,0.19,1.91,3.78
2.60744571685791,-3.51,2.11,3.46,5.36
2.6143229007720947,-2.01,3.97,4.37,6.23
2.6244218349456787,0.27,4.51,2.7,5.26
2.63444185256958,0.95,3.09,-0.82,3.33
2.6484768390655518,-0.76,1.09,-3.52,3.76
2.6577749252319336,-3.48,-0.13,-3.2,4.72
2.664397716522217,-4.96,-0.5,0.21,4.98
2.6745047569274902,-3.11,-0.47,2.79,4.2
2.684461832046509,0.06,-0.59,1.48,1.59
2.698408842086792,2.25,-0.59,-1.33,2.67
2.707249879837036,3.11,-0.24,-2.68,4.11
2.7144827842712402,3.35,0.46,-2.43,4.16
2.724526882171631,3.28,1.02,-1.45,3.72
2.734513759613037,2.69,0.88,-0.76,2.93
2.748562812805176,1.56,0.26,-0.63,1.7
2.7582039833068848,0.25,-0.25,-0.52,0.62
2.7645277976989746,-0.67,-0.35,-0.15,0.77
2.774531841278076,-1.07,-0.13,0.34,1.13
2.784857749938965,-1.04,0.2,0.39,1.12
2.79853892326355,-0.83,0.43,0.05,0.93
2.8082218170166016,-0.52,0.46,-0.43,0.81
2.8145580291748047,-0.1,0.32,-0.91,0.96
2.8246517181396484,0.44,0.19,-1.19,1.28
2.8347067832946777,0.88,0.14,-1.21,1.5
2.848810911178589,1.02,0.1,-1.38,1.71
2.857779026031494,0.84,0.03,-1.2,1.46
2.8646817207336426,0.47,-0.04,-0.57,0.73
2.8747029304504395,0.3,0.02,-0.13,0.32
2.884819984436035,0.35,0.13,0.05,0.37
2.8977608680725098,0.37,0.21,0.01,0.42
2.9065358638763428,0.24,0.14,-0.28,0.39
2.914609909057617,0.0,0.03,-0.53,0.53
2.924767017364502,-0.33,-0.1,-0.7,0.78
2.9347457885742188,-0.46,-0.17,-0.59,0.76
2.948096752166748,-0.3,-0.09,-0.41,0.51
2.9570748805999756,0.04,0.0,-0.3,0.3
2.964756965637207,0.3,-0.02,-0.49,0.57
2.974949836730957,0.19,-0.11,-0.89,0.91
2.9847328662872314,-0.11,-0.16,-0.89,0.91
2.9982247352600098,-0.24,-0.1,-0.4,0.47
3.0071229934692383,0.05,0.13,0.49,0.5
3.014936923980713,0.75,0.37,1.33,1.57
3.0248658657073975,1.32,0.45,1.55,2.08
3.034925937652588,1.32,0.37,1.16,1.79
3.0481808185577393,0.81,0.19,0.55,0.99
3.0572128295898438,0.18,0.05,0.23,0.29
3.0649337768554688,-0.24,-0.1,0.06,0.26
3.0749928951263428,-0.25,0.02,-0.05,0.25
3.0851097106933594,-0.01,0.12,-0.42,0.43
3.098191738128662,0.24,0.19,-1.05,1.09
3.1072659492492676,0.3,0.26,-1.55,1.6
3.114974021911621,0.06,0.01,-1.94,1.94
3.125013828277588,-0.37,-0.05,-2.2,2.23
3.1350626945495605,-0.89,-0.02,-2.33,2.49
3.1483538150787354,-1.3,-0.04,-2.21,2.56
3.157590866088867,-1.54,0.1,-1.72,2.31
3.1649527549743652,-1.58,0.35,-1.14,1.97
3.174973964691162,-1.47,0.86,-0.97,1.95
3.185206890106201,-1.38,1.55,-0.81,2.22
3.198159694671631,-1.47,2.16,-0.39,2.64
3.207551956176758,-1.54,2.37,-0.13,2.82
3.2150697708129883,-1.29,2.14,-0.1,2.5
3.2251548767089844,-0.68,1.85,-0.12,1.97
3.235200881958008,-0.05,1.83,-0.28,1.85
3.2484097480773926,0.42,1.94,-0.77,2.12
3.257861852645874,0.68,1.97,-1.25,2.43
3.265199899673462,0.92,1.85,-1.64,2.63
3.2751479148864746,1.03,1.95,-1.81,2.85
3.2853899002075195,0.93,2.83,-1.16,3.19
3.298460006713867,1.42,4.16,0.14,4.39
3.307497024536133,2.64,5.28,0.62,5.93
3.315142869949341,4.2,5.68,0.7,7.09
3.325333833694458,4.95,4.86,1.21,7.04
3.335230827331543,3.86,3.45,1.58,5.41
3.3486080169677734,1.22,2.55,0.95,2.98
3.358020782470703,-1.0,2.49,-0.03,2.68
3.365346908569336,-2.67,2.67,-0.67,3.83
3.3752408027648926,-3.45,2.89,-0.96,4.6
3.3854527473449707,-2.93,3.07,-1.11,4.38
3.3985137939453125,-1.92,3.12,-0.65,3.72
3.4077067375183105,-1.12,2.92,0.12,3.12
3.4151968955993652,-0.51,2.62,0.23,2.67
3.425433874130249,-0.02,2.3,-0.36,2.32
3.4353699684143066,0.3,1.92,-0.88,2.13
3.448702812194824,0.09,1.48,-0.94,1.75
3.458065986633301,-0.82,0.79,-0.68,1.32
3.4654479026794434,-1.99,0.4,-0.64,2.12
3.4753379821777344,-2.85,0.49,-1.22,3.13
3.485626697540283,-3.15,0.95,-2.1,3.9
3.498579978942871,-3.15,1.26,-2.29,4.09
3.5076818466186523,-3.65,0.97,-1.54,4.07
3.5153958797454834,-4.41,0.01,-0.66,4.45
3.52553391456604,-4.79,-1.0,-0.44,4.91
3.5354490280151367,-4.5,-1.68,-0.84,4.87
3.548933982849121,-3.79,-1.93,-1.51,4.51
3.558121919631958,-3.16,-1.87,-2.09,4.22
3.5661988258361816,-2.86,-1.59,-2.42,4.06
3.5755088329315186,-2.57,-1.29,-2.56,3.85
3.585618019104004,-2.15,-1.0,-2.53,3.46
3.5986099243164062,-1.63,-0.93,-2.51,3.13
3.607672691345215,-1.4,-1.2,-2.46,3.07
3.6160778999328613,-1.84,-1.76,-2.32,3.44
3.6256847381591797,-2.64,-2.24,-2.11,4.05
3.6355509757995605,-3.45,-2.67,-2.0,4.79
3.649646759033203,-3.8,-3.03,-2.01,5.25
3.6555347442626953,-3.93,-3.26,-1.96,5.46
3.671677827835083,-4.17,-3.47,-1.71,5.68
3.6756088733673096,-4.39,-3.64,-1.32,5.85
3.6858408451080322,-4.35,-3.73,-1.09,5.83
3.6996169090270996,-4.15,-3.84,-1.07,5.75
3.7057957649230957,-3.88,-4.01,-1.3,5.72
3.7214348316192627,-3.81,-4.24,-1.35,5.85
3.725801944732666,-3.77,-4.43,-1.15,5.92
3.7356278896331787,-3.45,-4.39,-1.06,5.68
3.749696731567383,-2.91,-4.13,-1.15,5.18
3.7557408809661865,-2.42,-3.82,-1.27,4.69
3.7717158794403076,-1.99,-3.5,-1.24,4.21
3.7757887840270996,-1.51,-3.28,-1.15,3.78
3.785902976989746,-0.98,-3.15,-1.04,3.45
3.7996950149536133,-0.44,-3.16,-0.89,3.31
3.806001901626587,0.01,-3.14,-0.51,3.18
3.821741819381714,0.33,-2.81,0.19,2.83
3.8259599208831787,0.49,-2.46,0.87,2.65
3.835859775543213,0.54,-1.93,1.39,2.43
3.8499398231506348,0.89,-1.04,1.2,1.82
3.855973720550537,1.37,0.03,0.65,1.51
3.871915817260742,1.61,0.94,1.17,2.2
3.8757729530334473,1.61,1.4,2.92,3.61
3.886072874069214,1.49,1.36,4.22,4.67
3.8998708724975586,1.04,0.9,4.38,4.59
3.9060778617858887,0.34,0.42,3.9,3.93
3.9220809936523438,-0.24,0.08,3.29,3.29
3.9260849952697754,-0.41,-0.07,3.11,3.13
3.935999870300293,0.3,0.0,3.2,3.21
3.9500818252563477,1.87,0.38,2.93,3.49
3.956042766571045,3.36,1.28,2.4,4.32
3.9720706939697266,4.13,3.27,2.2,5.7
3.9760727882385254,4.65,5.88,1.92,7.73
3.9861807823181152,6.21,8.51,-0.29,10.53
3.9980998039245605,9.19,9.84,-4.01,14.04
4.0072808265686035,11.18,8.3,-6.29,15.27
4.014923810958862,9.93,4.32,-6.51,12.63
4.024896860122681,4.34,0.02,-4.79,6.46
4.034989833831787,-1.87,-3.2,-1.69,4.07
4.0483317375183105,-6.61,-5.4,-0.13,8.53
4.057536840438843,-8.34,-5.88,-1.34,10.29
4.064925909042358,-8.52,-4.31,0.46,9.55
4.075060844421387,-5.04,-1.13,4.67,6.96
4.084963798522949,-1.13,0.99,7.86,8.0
4.098074913024902,0.5,0.8,8.94,8.98
4.10745096206665,1.03,-0.54,7.46,7.55
4.11488676071167,1.24,-1.21,3.87,4.24
4.1249847412109375,1.36,-0.9,0.59,1.73
4.1351518630981445,0.84,-0.05,-0.93,1.25
4.148247718811035,-0.31,1.21,-1.56,1.99
4.157588005065918,-0.93,2.43,-1.78,3.15
4.165038824081421,-0.6,2.85,-1.33,3.2
4.174962997436523,0.29,2.08,-0.71,2.21
4.185211896896362,1.19,0.8,-0.91,1.69
4.198307991027832,2.04,-0.06,-1.12,2.32
4.207757949829102,2.61,-0.3,-0.31,2.64
4.215097904205322,2.82,-0.1,0.92,2.96
4.22521185874939,2.34,0.1,1.43,2.74
4.235112905502319,1.15,0.08,1.09,1.58
4.248222827911377,-0.14,0.08,0.16,0.22
4.257649898529053,-1.14,0.06,-0.83,1.41
4.265132904052734,-1.62,0.06,-1.07,1.94
4.275097846984863,-1.16,0.22,0.16,1.19
4.285322904586792,-0.03,0.28,1.33,1.35
4.298367023468018,0.84,0.39,1.18,1.5
4.308465003967285,0.94,0.61,0.76,1.35
4.315052032470703,0.59,0.61,0.72,1.11
4.325227737426758,0.46,0.45,0.76,0.99
4.335204839706421,0.63,0.29,0.78,1.04
4.348451852798462,0.71,0.26,0.42,0.86
4.358057975769043,0.44,0.25,-0.15,0.52
4.367877006530762,0.04,0.25,-0.94,0.97
4.377920866012573,0.0,0.36,-1.04,1.1
4.388045787811279,0.17,0.46,-0.23,0.54
4.401779890060425,0.39,0.42,0.06,0.57
4.407869815826416,0.49,0.38,-0.6,0.86
4.422915935516357,0.24,0.39,-1.09,1.18
4.427937984466553,-0.21,0.31,-0.79,0.87
4.437870979309082,-0.47,0.23,-0.31,0.6
4.451749801635742,-0.38,0.27,-0.13,0.48
4.457948923110962,-0.53,0.46,-0.31,0.76
4.472592830657959,-0.75,0.63,-0.59,1.14
4.477896690368652,-0.95,0.52,-0.99,1.46
4.48803186416626,-1.03,0.24,-1.09,1.51
4.50185489654541,-1.02,-0.02,-0.89,1.35
4.508008003234863,-1.05,-0.19,-1.03,1.48
4.522589921951294,-0.97,0.01,-1.05,1.42
4.5279998779296875,-0.76,0.28,-0.71,1.07
4.538027763366699,-0.59,0.29,-0.41,0.77
4.551857948303223,-0.5,0.13,-0.38,0.64
4.558043956756592,-0.55,-0.07,-0.45,0.71
4.572499752044678,-0.68,-0.25,-0.65,0.97
4.5780189037323,-0.88,-0.29,-0.81,1.23
4.588173866271973,-0.97,-0.22,-0.75,1.24
4.601667881011963,-0.79,-0.47,-0.78,1.2
4.6082048416137695,-0.38,-0.79,-0.97,1.3
4.622616767883301,0.01,-0.8,-0.98,1.26
4.628211975097656,0.29,-0.5,-0.79,0.97
4.6382129192352295,0.38,-0.15,-0.55,0.68
4.651827812194824,0.26,0.0,-0.44,0.51
4.658175945281982,-0.03,-0.05,0.06,0.08
4.6725239753723145,0.14,-0.08,0.81,0.82
4.6781439781188965,0.39,0.21,0.88,0.98
4.688241958618164,0.12,0.9,0.3,0.95
4.701939821243286,-0.9,1.58,0.12,1.82
4.708303928375244,-2.22,2.3,-0.15,3.2
4.722589015960693,-3.22,3.33,0.04,4.63
4.728295803070068,-3.24,4.79,0.95,5.86
4.738358020782471,-2.16,6.12,2.36,6.9
4.7521138191223145,-1.43,6.54,2.84,7.27
4.758323907852173,-1.95,6.01,1.61,6.52
4.772688865661621,-3.33,5.38,0.26,6.33
4.778311729431152,-4.98,5.01,-0.4,7.07
4.788421869277954,-6.41,4.62,-0.71,7.93
4.8020079135894775,-7.52,3.77,-1.01,8.47
4.808410882949829,-8.24,2.35,-1.1,8.63
4.822735786437988,-8.26,0.44,-1.06,8.33
4.828425884246826,-7.86,-1.3,-0.65,7.99
4.838397979736328,-7.24,-2.26,-0.43,7.59
4.85221791267395,-6.58,-2.75,-0.71,7.16
4.858670711517334,-5.3,-3.03,-1.46,6.27
4.872644901275635,-3.24,-2.13,-3.01,4.9
4.878413915634155,-1.71,-0.07,-4.11,4.45
4.888548851013184,-1.18,2.75,-5.73,6.46
4.9023778438568115,0.28,5.18,-6.94,8.66
4.908563852310181,2.48,7.05,-5.84,9.48
4.922776699066162,4.82,8.18,-2.66,9.86
4.928520917892456,7.53,8.69,-0.43,11.5
4.938512802124023,9.16,8.3,-0.92,12.39
4.952315807342529,8.66,6.92,-2.19,11.29
4.958557844161987,6.34,5.66,-3.29,9.11
4.97298002243042,3.43,5.75,-3.95,7.77
4.978555917739868,1.45,6.45,-4.27,7.87
4.988683700561523,-0.17,6.77,-4.45,8.1
5.002283811569214,-1.72,6.62,-4.63,8.25
5.008718013763428,-2.88,5.64,-4.27,7.63
5.0228776931762695,-3.29,4.21,-3.5,6.38
5.028703689575195,-3.4,2.89,-3.04,5.39
5.038671970367432,-3.54,1.64,-2.7,4.74
5.052574872970581,-3.94,0.56,-2.08,4.49
5.058750867843628,-4.36,-0.14,-1.56,4.63
5.072943687438965,-4.55,-0.58,-1.36,4.78
5.078672885894775,-4.33,-0.84,-1.57,4.68
5.088801860809326,-4.08,-1.41,-1.92,4.72
5.102383852005005,-4.01,-2.12,-2.04,4.97
5.108742713928223,-4.05,-2.81,-2.07,5.34
5.122926712036133,-4.02,-3.57,-2.43,5.9
5.1289167404174805,-3.82,-4.3,-2.93,6.45
5.138780832290649,-3.68,-5.04,-2.96,6.9
5.1525750160217285,-3.39,-5.69,-2.7,7.15
5.158777713775635,-2.47,-6.04,-2.76,7.08
5.173013687133789,-1.26,-6.01,-3.19,6.91
5.17876672744751,-0.39,-5.66,-3.57,6.7
5.1889328956604,-0.21,-5.67,-3.7,6.77
5.202510833740234,-0.45,-6.23,-3.55,7.18
5.20894193649292,-0.99,-7.13,-3.01,7.8
5.222967863082886,-1.54,-8.21,-2.32,8.66
5.228825807571411,-1.8,-8.91,-1.77,9.26
5.238898754119873,-1.71,-9.01,-1.58,9.3
5.2526140213012695,-1.26,-8.52,-2.08,8.86
5.25883674621582,-0.88,-7.88,-2.48,8.3
5.27338171005249,-0.84,-7.63,-2.19,7.98
5.278903007507324,-0.52,-7.61,-1.59,7.79
5.289026737213135,0.3,-7.49,-0.96,7.55
5.302682876586914,1.39,-7.2,-0.16,7.33
5.30912971496582,2.55,-6.71,0.69,7.21
5.322940826416016,3.79,-6.04,1.37,7.26
5.329125881195068,4.98,-5.15,2.23,7.5
5.339142799377441,6.03,-4.03,3.38,8.0
5.352965831756592,6.82,-2.9,3.69,8.27
5.359086036682129,7.12,-2.25,3.28,8.15
5.373418807983398,7.25,-2.29,3.01,8.17
5.379063844680786,7.62,-3.06,2.72,8.65
5.389163017272949,8.0,-4.51,2.61,9.54
5.402864933013916,8.16,-6.18,2.68,10.58
5.409114837646484,8.45,-7.66,3.06,11.8
5.422982692718506,8.82,-6.79,3.45,11.65
5.429186820983887,9.54,-1.77,-0.67,9.72
5.4391937255859375,12.02,4.65,-0.92,12.92
5.452859878540039,16.85,9.81,7.28,20.81
5.460672855377197,14.74,14.82,7.6,22.24
5.4728827476501465,5.7,17.5,5.07,19.09
5.479336738586426,-2.06,17.15,1.09,17.3
5.489319801330566,-4.33,11.96,-6.17,14.13
5.502992868423462,-4.73,4.16,-8.37,10.47
5.509359836578369,-7.65,-2.53,-2.67,8.48
5.522923946380615,-9.97,-8.21,2.21,13.1
5.529292821884155,-10.07,-12.54,3.68,16.49
5.539270877838135,-8.86,-12.65,5.38,16.35
5.552924871444702,-4.82,-5.78,3.96,8.5
5.559273719787598,-1.76,0.89,0.67,2.08
5.572891712188721,-1.21,5.22,-0.3,5.36
5.579302787780762,-0.55,8.38,-0.32,8.4
5.589409828186035,0.84,8.35,-0.6,8.41
5.602877855300903,2.45,4.56,-1.37,5.35
5.609485864639282,3.45,0.17,-2.08,4.03
5.623064041137695,4.16,-2.49,-0.66,4.89
5.629439830780029,4.13,-3.08,1.72,5.43
5.639404773712158,2.49,-1.71,2.1,3.67
5.653066873550415,0.91,0.21,1.8,2.02
5.659437894821167,-0.4,1.49,1.44,2.11
5.672835826873779,-1.31,1.78,0.26,2.22
5.679407835006714,-1.7,1.5,-0.1,2.26
5.689538955688477,-1.53,1.05,0.03,1.85
5.7029619216918945,-1.04,0.67,-0.42,1.3
5.709584712982178,-0.51,0.65,-0.98,1.28
5.722836017608643,-0.35,0.98,-1.18,1.57
5.729547023773193,-0.64,1.47,-1.28,2.05
5.739526748657227,-1.11,1.68,-1.18,2.33
5.752868890762329,-1.63,1.3,-0.84,2.24
5.759512901306152,-2.02,0.49,-0.39,2.11
5.772964954376221,-1.95,-0.4,0.12,1.99
5.779561996459961,-1.47,-0.69,0.71,1.77
5.789669990539551,-0.79,-0.56,1.0,1.39
5.802958011627197,-0.43,-0.22,0.79,0.92
5.809707880020142,-0.57,-0.07,0.42,0.71
5.823064804077148,-0.91,-0.23,0.11,0.94
5.829700946807861,-0.87,-0.39,0.15,0.96
5.839664936065674,-0.59,-0.8,-0.12,1.0
5.852977752685547,-0.25,-0.99,-0.74,1.26
5.859679698944092,0.02,-0.84,-1.21,1.47
5.8730878829956055,0.14,-0.55,-1.35,1.46
5.879577875137329,0.14,-0.32,-1.47,1.51
5.889806747436523,0.51,-0.1,-1.04,1.16
5.902853012084961,1.12,0.26,-0.31,1.19
5.9098219871521,1.3,0.87,-0.02,1.56
5.9232587814331055,0.83,1.68,-0.12,1.87
5.929792881011963,-0.03,2.32,0.45,2.36
5.939795017242432,-0.76,2.74,1.2,3.08
5.953200817108154,-1.22,3.22,1.67,3.82
5.959775924682617,-1.67,3.81,2.34,4.77
5.973168849945068,-2.7,4.08,1.58,5.14
5.97983980178833,-4.24,4.18,0.13,5.95
5.989919900894165,-5.95,4.22,-0.75,7.33
6.002992868423462,-7.39,4.02,-1.06,8.47
6.009932994842529,-7.84,3.67,-0.71,8.68
6.023159980773926,-7.39,2.96,-0.36,7.96
6.029932022094727,-6.89,2.08,-0.19,7.19
6.039904832839966,-7.07,0.96,0.19,7.13
6.053211688995361,-7.48,-0.44,0.9,7.54
6.059934854507446,-7.1,-1.54,1.75,7.47
6.073624849319458,-5.3,-1.49,0.91,5.58
6.080067873001099,-2.78,-0.24,-1.0,2.96
6.090181827545166,-0.52,1.42,-1.96,2.47
6.103103876113892,1.11,3.32,-1.81,3.94
6.110106945037842,1.94,5.65,-4.19,7.29
6.123400688171387,2.33,6.93,-7.39,10.39
6.130107879638672,3.52,8.65,-8.14,12.38
6.140426874160767,6.05,10.55,-5.97,13.54
6.153421878814697,7.44,10.82,-3.51,13.59
6.16005802154541,6.52,8.18,-2.36,10.72
6.173577785491943,2.03,4.09,-2.26,5.09
6.180091857910156,-1.02,2.42,-2.11,3.36
6.190223693847656,-2.5,2.83,-2.35,4.44
6.203262805938721,-2.86,3.9,-3.04,5.71
6.210196018218994,-2.73,4.57,-3.87,6.58
6.223498821258545,-2.72,4.31,-4.19,6.59
6.230208873748779,-2.68,3.39,-4.06,5.92
6.240175724029541,-2.3,2.29,-3.91,5.08
6.253479957580566,-1.53,1.43,-3.97,4.48
6.2603068351745605,-0.99,0.78,-4.01,4.2
6.274176836013794,-1.08,0.1,-3.72,3.87
6.280217885971069,-1.51,-0.52,-3.01,3.4
6.290344715118408,-1.9,-0.9,-2.3,3.11
6.303642749786377,-2.06,-1.0,-2.09,3.1
6.3103368282318115,-2.2,-0.95,-2.16,3.22
6.323843955993652,-2.71,-1.04,-1.98,3.51
6.330300807952881,-3.41,-1.09,-1.57,3.9
6.3403308391571045,-4.08,-1.24,-1.19,4.42
6.353714942932129,-4.47,-1.51,-1.43,4.93
6.360321998596191,-4.59,-1.89,-1.93,5.32
6.373601913452148,-4.67,-2.63,-2.03,5.73
6.38034200668335,-4.73,-3.48,-1.74,6.12
6.3904688358306885,-4.41,-4.05,-1.59,6.19
6.403685808181763,-3.23,-4.08,-1.96,5.56
6.410347938537598,-2.21,-4.02,-2.39,5.17
6.423532962799072,-1.83,-4.19,-2.49,5.2
6.430457830429077,-1.81,-4.52,-2.09,5.29
6.440366744995117,-1.81,-5.35,-1.58,5.86
6.4537718296051025,-1.7,-6.45,-1.53,6.84
6.460416793823242,-1.58,-7.62,-1.49,7.92
6.473443031311035,-1.63,-8.59,-1.06,8.8
6.48046088218689,-1.59,-9.01,-0.41,9.15
6.49058985710144,-1.21,-8.92,-0.08,9.0
6.503809928894043,-0.77,-8.46,0.06,8.49
6.510579824447632,-0.43,-8.13,-0.02,8.14
6.523579835891724,-0.08,-7.87,-0.46,7.88
6.530473709106445,0.06,-7.54,-0.46,7.55
6.540566921234131,0.6,-7.21,0.2,7.23
6.553943872451782,1.91,-6.75,0.93,7.07
6.5605409145355225,3.69,-6.21,1.44,7.36
6.573657989501953,5.45,-5.39,1.78,7.86
6.580671787261963,6.74,-4.62,2.31,8.49
6.59070086479187,7.76,-3.95,2.61,9.09
6.604033946990967,8.86,-3.2,2.83,9.83
6.610733985900879,10.13,-2.44,3.28,10.92
6.623767852783203,11.46,-2.16,4.06,12.34
6.6306939125061035,12.46,-2.84,5.07,13.74
6.640596866607666,12.75,-4.12,6.0,14.68
6.654119968414307,12.71,-2.75,5.44,14.09
6.660672903060913,13.11,2.48,0.78,13.36
6.673681735992432,16.21,7.84,2.11,18.12
6.680727005004883,16.81,10.46,4.9,20.39
6.690942764282227,9.72,11.12,1.09,14.8
6.704038858413696,2.26,10.02,-2.59,10.59
6.710839748382568,-2.82,8.68,-6.48,11.19
6.723762035369873,-5.29,5.4,-9.0,11.75
6.730834007263184,-8.02,0.71,-3.93,8.95
6.740843772888184,-10.92,-4.09,3.34,12.12
6.7541139125823975,-11.52,-7.77,4.35,14.56
6.760844707489014,-10.24,-9.09,3.68,14.17
6.773723840713501,-6.66,-5.23,4.97,9.81
6.780869960784912,-3.14,0.15,2.99,4.33
6.790926933288574,-2.78,3.67,0.21,4.6
6.804241895675659,-2.51,6.04,0.11,6.54
6.810948848724365,-1.04,5.87,0.63,5.99
6.823910713195801,1.21,3.07,0.26,3.31
6.830950736999512,3.0,-0.2,-0.63,3.07
6.841012954711914,4.15,-2.17,-1.15,4.82
6.854397773742676,4.74,-2.36,-0.52,5.32
6.8609418869018555,4.14,-0.74,0.44,4.22
6.873733043670654,2.7,1.02,0.65,2.95
6.881058692932129,1.42,1.44,0.19,2.03
6.891072750091553,-0.03,0.82,-0.53,0.97
6.904448986053467,-1.38,-0.05,-0.99,1.69
6.911046981811523,-2.42,-0.62,-0.87,2.64
6.924039840698242,-2.94,-0.72,-0.28,3.03
6.9310948848724365,-2.63,-0.58,0.46,2.73
6.941083908081055,-1.63,-0.34,0.26,1.68
6.954530715942383,-0.57,-0.04,-0.28,0.63
6.961087703704834,0.25,0.23,-0.36,0.49
6.9741950035095215,0.7,0.33,-0.61,0.98
6.98110294342041,0.72,0.3,-0.84,1.14
6.991203784942627,0.41,0.11,-0.98,1.06
7.004485845565796,-0.02,0.04,-0.86,0.86
7.011229038238525,-0.3,0.2,-0.08,0.36
7.024188995361328,-0.13,0.35,0.9,0.97
7.031240940093994,0.35,0.31,1.34,1.41
7.041176795959473,0.61,0.14,0.72,0.95
7.054541826248169,0.48,0.16,0.16,0.53
7.061177730560303,-0.07,0.28,-0.25,0.38
7.073951721191406,-0.89,0.48,-0.48,1.11
7.08144998550415,-1.48,0.64,-1.02,1.9
7.091485977172852,-1.51,0.57,-1.11,1.95
7.104666709899902,-1.25,0.54,-0.58,1.48
7.111531734466553,-1.54,0.48,-1.44,2.16
7.124177932739258,-2.02,0.74,-2.31,3.15
7.1315789222717285,-2.32,1.13,-2.21,3.39
7.141512870788574,-2.48,1.21,-1.93,3.36
7.154719829559326,-2.19,0.77,-1.83,2.95
7.161516904830933,-1.98,0.18,-1.44,2.45
7.174296855926514,-1.89,-0.42,-1.04,2.19
7.181550025939941,-1.28,-0.85,-0.05,1.53
7.191601753234863,-0.31,-0.87,1.03,1.38
7.204856872558594,0.68,-0.3,1.43,1.61
7.2116217613220215,1.21,0.74,1.2,1.85
7.224210739135742,1.1,1.7,0.46,2.07
7.23152494430542,0.39,2.22,-0.11,2.25
7.2413330078125,-0.98,2.22,0.02,2.42
7.2548828125,-2.09,1.98,0.53,2.92
7.26145601272583,-1.9,2.05,2.83,3.97
7.274597883224487,-1.14,2.38,3.64,4.49
7.281490802764893,-0.82,3.1,2.56,4.1
7.291600704193115,-1.14,3.87,1.44,4.28
7.304880857467651,-1.87,4.47,-0.11,4.84
7.311598777770996,-2.76,4.76,-1.22,5.63
7.324681758880615,-3.76,4.98,-1.54,6.42
7.331621885299683,-4.6,4.85,-1.63,6.88
7.341583728790283,-5.3,4.11,-1.67,6.91
7.354936838150024,-5.87,2.75,-1.94,6.76
7.361672878265381,-6.38,1.28,-2.29,6.89
7.374447822570801,-7.15,0.02,-2.09,7.44
7.3817267417907715,-8.36,-1.12,-1.51,8.56
7.391729831695557,-8.63,-2.02,-2.12,9.11
7.404821872711182,-7.31,-1.96,-4.06,8.58
7.411618709564209,-5.78,-1.05,-5.25,7.87
7.424532890319824,-4.44,0.49,-4.65,6.44
7.432565689086914,-3.09,2.45,-2.98,4.94
7.441696882247925,-1.08,3.85,-1.64,4.32
7.455121994018555,0.69,4.4,-1.88,4.83
7.461733818054199,1.73,5.24,-3.68,6.63
7.474463939666748,2.52,6.31,-4.96,8.41
7.482339859008789,3.38,7.41,-4.34,9.22
7.491862773895264,4.29,8.46,-2.32,9.76
7.5051469802856445,4.84,9.3,-1.01,10.53
7.512060880661011,5.08,9.68,-1.13,10.99
7.524336814880371,5.49,9.96,-1.72,11.5
7.532505035400391,5.22,9.59,-2.93,11.3
7.541889905929565,3.72,8.45,-4.28,10.17
7.555340766906738,2.38,6.79,-4.81,8.65
7.5618109703063965,0.88,5.07,-4.89,7.09
7.574605941772461,-0.61,3.73,-4.78,6.09
7.582423686981201,-2.28,2.89,-4.37,5.71
7.591965913772583,-3.87,2.16,-3.95,5.93
7.605249881744385,-5.01,1.19,-3.41,6.17
7.611959934234619,-5.68,-0.22,-2.8,6.33
7.624499797821045,-6.1,-2.01,-2.29,6.81
7.632656812667847,-6.3,-4.01,-1.76,7.67
7.641932964324951,-6.19,-5.86,-1.36,8.63
7.655495882034302,-5.64,-7.21,-1.61,9.29
7.662000894546509,-4.17,-7.67,-2.69,9.13
7.673882961273193,-2.52,-7.45,-3.58,8.64
7.682604789733887,-2.45,-7.32,-3.85,8.62
7.692101955413818,-3.23,-7.48,-3.69,8.94
7.705382823944092,-3.99,-8.13,-3.47,9.69
7.712095737457275,-4.83,-9.26,-3.35,10.96
7.723876953125,-5.08,-10.24,-3.02,11.82
7.732812881469727,-4.72,-10.93,-2.34,12.13
7.742094039916992,-3.5,-11.37,-1.89,12.04
7.755414009094238,-1.71,-11.58,-1.8,11.84
7.762094020843506,-0.74,-11.7,-1.24,11.78
7.773987770080566,-0.54,-11.67,-0.83,11.71
7.782765865325928,-0.08,-10.98,-0.85,11.01
7.792212963104248,0.64,-9.7,-0.48,9.73
7.805490970611572,1.5,-8.67,0.26,8.8
7.8122076988220215,2.58,-7.92,0.82,8.36
7.823997974395752,4.03,-7.14,0.83,8.24
7.832812786102295,5.72,-6.13,0.27,8.38
7.842222690582275,7.24,-5.13,0.43,8.88
7.855551719665527,8.5,-4.45,2.0,9.8
7.862246990203857,9.58,-4.26,3.98,11.21
7.874026775360107,10.37,-4.57,5.29,12.5
7.88281774520874,11.0,-4.85,5.18,13.09
7.8923659324646,11.29,-4.81,4.61,13.1
7.905739784240723,10.38,-4.94,5.26,12.64
7.9123759269714355,10.14,-4.08,7.48,13.24
7.923969745635986,10.44,1.91,0.52,10.62
7.9328227043151855,12.29,8.59,0.61,15.0
7.942483901977539,18.0,13.45,9.8,24.51
7.95591402053833,15.45,16.15,5.64,23.05
7.962421894073486,6.6,14.43,-5.28,16.72
7.974121809005737,0.72,9.87,-10.13,14.16
7.9828200340271,-2.62,4.9,-9.87,11.32
7.993006706237793,-5.51,0.37,-6.55,8.56
8.003032922744751,-8.4,-3.88,-0.97,9.3
8.00997281074524,-9.71,-7.36,2.85,12.51
8.023706912994385,-9.22,-8.76,3.0,13.06
8.02998685836792,-7.48,-5.64,4.68,10.47
8.040010929107666,-3.6,0.18,5.85,6.87
8.053547859191895,-2.37,4.12,2.84,5.53
8.060050964355469,-2.47,6.38,-0.16,6.84
8.073887825012207,-1.98,6.03,-0.66,6.38
8.079999923706055,-0.49,3.3,-0.07,3.33
8.090170860290527,1.31,0.19,0.88,1.58
8.103235721588135,2.65,-1.92,0.88,3.38
8.11012077331543,3.5,-2.36,0.82,4.3
8.123893737792969,3.23,-1.01,1.32,3.63
8.130112886428833,2.43,0.72,1.59,2.99
8.14011001586914,1.79,1.36,1.5,2.7
8.15342903137207,1.2,0.91,0.91,1.75
8.160161018371582,0.54,0.06,0.4,0.67
8.173882007598877,-0.21,-0.41,0.43,0.63
8.180113792419434,-0.9,-0.49,-0.25,1.05
8.19025468826294,-1.29,-0.23,-1.03,1.66
8.203735828399658,-1.12,0.16,-1.05,1.54
8.210243701934814,-0.62,0.41,-1.0,1.24
8.223765850067139,-0.13,0.61,-0.43,0.75
8.230234861373901,0.08,0.7,-0.05,0.7
8.240234851837158,0.26,0.61,-0.82,1.05
8.253389835357666,0.63,0.58,-1.31,1.56
8.260258913040161,0.84,0.77,-0.35,1.19
8.27384090423584,0.3,1.06,-0.1,1.1
8.280300855636597,-0.83,1.33,-1.09,1.9
8.29045295715332,-1.8,1.53,-1.22,2.65
8.303853988647461,-2.13,1.51,-0.65,2.69
8.310455799102783,-1.95,1.03,-0.49,2.25
8.324166774749756,-1.53,0.4,-1.0,1.87
8.330334901809692,-1.45,0.13,-1.34,1.97
8.340356826782227,-1.94,-0.01,-1.23,2.29
8.353835821151733,-2.63,-0.09,-1.01,2.81
8.364171028137207,-2.83,-0.25,-0.62,2.9
8.375041961669922,-2.19,-0.7,-0.38,2.33
8.384238719940186,-1.24,-0.8,-0.54,1.57
8.394283771514893,-0.56,-0.44,-1.04,1.26
8.407328844070435,-0.36,-0.12,-1.59,1.63
8.41425371170044,-0.51,-0.28,-1.55,1.65
8.424916744232178,-0.49,-0.72,-1.76,1.96
8.434350967407227,-0.16,-1.21,-1.51,1.94
8.444202899932861,0.07,-1.43,-1.08,1.79
8.457608699798584,0.11,-1.16,-0.75,1.38
8.464300870895386,0.0,-0.96,-0.48,1.07
8.475053787231445,0.06,-1.13,-0.35,1.18
8.484385013580322,0.64,-1.38,-0.37,1.56
8.494412899017334,1.49,-1.46,-0.25,2.1
8.507565975189209,2.05,-1.21,-0.03,2.38
8.514429807662964,2.27,-0.61,0.56,2.41
8.525156021118164,1.6,-0.18,1.13,1.96
8.534507751464844,0.37,0.04,1.42,1.46
8.544313907623291,-0.07,0.5,1.48,1.56
8.557801723480225,0.5,1.09,1.8,2.16
8.564312934875488,1.37,1.71,1.63,2.73
8.575141906738281,1.63,2.76,1.48,3.53
8.584443807601929,0.68,4.26,1.67,4.62
8.594505786895752,-1.25,5.88,2.42,6.48
8.607670783996582,-3.55,7.13,1.16,8.04
8.614527702331543,-5.74,7.92,-0.48,9.79
8.625277996063232,-7.45,7.91,-1.75,11.0
8.63462495803833,-8.46,7.21,-2.82,11.46
8.644476890563965,-9.12,6.03,-3.27,11.41
8.65779972076416,-9.58,4.43,-3.36,11.07
8.664450883865356,-9.67,2.7,-2.82,10.42
8.675269842147827,-8.75,0.89,-1.58,8.93
8.684631824493408,-6.99,-0.79,-0.72,7.07
8.694569826126099,-5.48,-2.01,-0.72,5.88
8.707888841629028,-4.48,-2.65,-1.03,5.3
8.714627742767334,-3.38,-2.82,-1.66,4.7
8.725473880767822,-2.41,-1.75,-2.98,4.21
8.734741687774658,-2.04,0.82,-3.77,4.36
8.7445707321167,-1.64,3.9,-4.35,6.06
8.75804090499878,-0.26,6.12,-4.55,7.63
8.76459288597107,2.24,7.59,-5.27,9.5
8.775397777557373,5.54,7.64,-3.76,10.15
8.784732818603516,8.94,6.42,-1.36,11.09
8.794963836669922,11.64,5.5,0.15,12.87
8.808010816574097,11.84,4.46,-0.36,12.65
8.814949989318848,10.04,4.17,-1.8,11.01
8.825825691223145,5.5,5.05,-2.38,7.83
8.83496904373169,1.59,6.19,-2.19,6.75
8.844730854034424,-0.3,6.55,-2.54,7.03
8.858192920684814,-1.49,5.97,-3.73,7.19
8.864857912063599,-2.35,4.72,-4.66,7.03
8.875792980194092,-3.1,3.32,-4.78,6.59
8.884836912155151,-3.9,2.04,-4.3,6.15
8.894956827163696,-4.64,0.84,-3.62,5.94
8.908095836639404,-5.19,-0.15,-3.2,6.09
8.914917945861816,-5.66,-0.78,-2.83,6.37
8.925902843475342,-5.79,-1.05,-2.44,6.37
8.93506669998169,-5.24,-1.01,-2.49,5.88
8.944851875305176,-3.93,-0.86,-3.07,5.06
8.958242893218994,-3.05,-1.06,-3.35,4.65
8.96496295928955,-2.77,-1.76,-2.84,4.34
8.975986003875732,-2.49,-2.63,-2.73,4.53
8.984937906265259,-1.9,-3.45,-3.37,5.18
8.994929790496826,-1.74,-4.16,-3.88,5.94
9.008234977722168,-2.29,-4.74,-3.58,6.36
9.024419784545898,-3.02,-5.14,-2.56,6.48
9.026294708251953,-3.15,-5.33,-2.03,6.51
9.035180807113647,-2.49,-5.38,-2.86,6.58
9.044951915740967,-2.23,-5.7,-3.6,7.1
9.058501720428467,-3.21,-6.93,-2.97,8.19
9.064879894256592,-4.76,-8.31,-1.12,9.64
9.076087951660156,-5.03,-8.76,0.87,10.13
9.085046768188477,-2.19,-8.31,0.12,8.59
9.095335006713867,-0.47,-8.15,-0.64,8.18
9.108268737792969,-1.76,-8.78,0.53,8.97
9.124611854553223,-2.57,-8.99,1.0,9.4
9.126502990722656,-1.77,-8.52,1.39,8.81
9.135205745697021,-0.08,-8.05,0.97,8.1
9.145190715789795,1.88,-7.54,0.01,7.77
9.158573865890503,3.79,-6.88,0.23,7.85
9.174525737762451,5.81,-5.9,1.61,8.43
9.176402807235718,7.73,-4.82,3.87,9.89
9.185204982757568,9.11,-4.17,6.04,11.69
9.195193767547607,9.58,-4.49,6.65,12.49
9.208666801452637,8.93,-5.58,5.94,12.08
9.224543809890747,7.41,-6.44,5.02,11.02
9.22641897201538,6.48,-7.0,5.13,10.83
9.235306739807129,6.98,-6.25,6.76,11.55
9.245211839675903,9.11,-1.89,4.75,10.44
9.258485794067383,11.01,4.22,1.03,11.83
9.274786949157715,17.13,9.41,5.79,20.38
9.276710987091064,20.16,12.59,7.62,24.95
9.285353899002075,13.06,10.26,2.16,16.74
9.295358896255493,3.27,5.8,-3.31,7.43
9.308599948883057,-1.59,3.03,-8.46,9.12
9.32521677017212,-4.3,1.69,-9.62,10.67
9.327083826065063,-6.65,1.25,-5.22,8.54
9.335507869720459,-8.48,-0.04,0.89,8.52
9.345363855361938,-8.72,-2.27,1.47,9.12
9.35881781578064,-8.0,-4.34,0.35,9.1
9.375401020050049,-4.73,-4.75,2.18,7.04
9.377240896224976,0.05,-2.71,4.5,5.25
9.385499000549316,2.23,0.01,3.88,4.47
9.395493984222412,3.44,2.36,2.15,4.69
9.408676862716675,3.68,3.72,1.59,5.46
9.424876689910889,3.1,3.42,1.36,4.81
9.426715850830078,1.66,1.59,0.94,2.48
9.4356369972229,0.08,-0.17,0.47,0.5
9.44567584991455,-1.47,-1.03,-0.36,1.83
9.458873748779297,-2.79,-0.69,-1.03,3.05
9.475481033325195,-3.68,0.73,-1.37,3.99
9.4773588180542,-3.67,2.53,-0.64,4.5
9.485602855682373,-2.84,3.6,-0.1,4.58
9.495526790618896,-2.23,3.14,-0.46,3.87
9.508822917938232,-1.8,1.31,-0.97,2.42
9.52523684501648,-1.23,-0.91,-1.06,1.86
9.527084827423096,-0.39,-2.82,-0.56,2.9
9.535715818405151,0.83,-3.91,-0.01,3.99
9.545600891113281,2.19,-3.87,0.34,4.45
9.558877944946289,3.19,-2.43,0.59,4.05
9.575301885604858,3.57,-0.02,0.63,3.62
9.57713794708252,2.97,2.24,0.39,3.74
9.585724830627441,1.77,3.81,-0.01,4.2
9.595726013183594,0.16,4.21,-0.95,4.31
9.608927726745605,-1.5,3.22,-1.52,3.86
9.62539291381836,-2.82,1.23,-1.91,3.62
9.627240896224976,-3.66,-0.93,-2.48,4.51
9.63589096069336,-3.74,-2.45,-2.15,4.96
9.645757913589478,-2.58,-2.8,-0.87,3.9
9.659169912338257,-0.96,-1.78,0.4,2.06
9.675469875335693,0.15,-0.06,0.75,0.76
9.677300930023193,0.74,1.38,0.28,1.59
9.685892820358276,1.01,1.96,-0.35,2.23
9.69593095779419,0.71,1.38,-0.83,1.75
9.709017753601074,0.16,0.06,-1.22,1.23
9.725472927093506,-0.08,-1.16,-1.19,1.66
9.7273108959198,-0.02,-1.92,-1.05,2.18
9.735984802246094,0.25,-2.0,-0.69,2.13
9.745851039886475,0.88,-1.17,-0.28,1.49
9.759375810623169,1.27,0.31,0.11,1.31
9.775440692901611,0.95,1.66,0.15,1.91
9.777298927307129,-0.26,2.18,-0.36,2.22
9.78594970703125,-2.04,1.56,-1.16,2.81
9.795997858047485,-3.48,0.13,-1.89,3.96
9.809226036071777,-4.01,-1.49,-2.12,4.77
9.825455904006958,-3.18,-2.62,-1.56,4.4
9.827317714691162,-1.13,-2.35,0.03,2.6
9.83612871170044,1.01,-0.77,1.35,1.85
9.845975875854492,1.84,1.22,1.12,2.47
9.859449863433838,1.18,2.42,0.83,2.81
9.875600814819336,-0.55,1.69,0.91,1.99
9.87745475769043,-1.17,-0.41,0.47,1.32
9.886059761047363,0.67,-2.01,1.59,2.64
9.89617395401001,3.62,-1.99,2.93,5.06
9.909334897994995,5.54,0.22,3.14,6.37
9.925554752349854,5.35,3.86,3.66,7.54
9.927390813827515,3.56,7.24,4.4,9.18
9.93626070022583,0.5,10.05,3.09,10.52
9.946589946746826,-2.74,11.56,0.64,11.89
9.959503889083862,-5.31,10.54,-0.99,11.84
9.975667953491211,-7.09,8.06,-1.62,10.85
9.977528810501099,-8.13,5.7,-1.9,10.1
9.986210823059082,-8.95,3.84,-1.93,9.92
9.996243953704834,-9.89,2.11,-1.53,10.22
10.00965690612793,-10.4,0.34,-0.96,10.44
10.025613784790039,-10.41,-1.29,-0.75,10.51
10.027515888214111,-10.66,-2.64,0.44,10.99
10.036425828933716,-10.06,-3.39,1.69,10.74
10.046230792999268,-7.18,-2.63,0.79,7.68
10.059574842453003,-4.33,-0.82,-0.58,4.44
10.075689792633057,-2.54,1.31,-2.6,3.86
10.077539920806885,-1.18,3.19,-5.62,6.56
10.086320877075195,-0.32,4.87,-7.92,9.3
10.096420764923096,0.34,6.41,-8.09,10.32
10.109721899032593,1.02,6.81,-6.22,9.27
10.125703811645508,2.06,6.31,-4.7,8.13
10.12754774093628,3.19,5.34,-3.56,7.16
10.136504888534546,4.15,4.26,-2.9,6.61
10.146361827850342,5.03,3.75,-2.56,6.77
10.159750938415527,5.64,3.74,-2.65,7.26
10.17589783668518,5.35,3.97,-3.29,7.43
10.177754878997803,4.07,4.39,-4.11,7.26
10.186474800109863,2.01,4.82,-4.48,6.88
10.196529865264893,0.08,4.57,-4.4,6.34
10.20974588394165,-1.62,3.74,-4.06,5.75
10.225767850875854,-3.11,2.79,-3.32,5.33
10.227617740631104,-4.49,2.05,-2.74,5.64
10.23661184310913,-5.26,1.37,-2.68,6.06
10.246517896652222,-5.21,0.89,-2.66,5.91
10.259778022766113,-4.63,0.56,-2.59,5.33
10.27541971206665,-4.03,0.15,-2.04,4.51
10.277283906936646,-3.77,-0.54,-1.23,4.0
10.28659987449646,-3.27,-1.3,-1.36,3.77
10.29662275314331,-2.46,-1.98,-2.09,3.78
10.310035705566406,-2.16,-2.76,-2.41,4.25
10.325912952423096,-1.77,-3.45,-2.65,4.69
10.327752828598022,-0.97,-3.83,-3.14,5.04
10.336824893951416,-0.21,-4.12,-3.48,5.39
10.346617698669434,0.11,-4.66,-3.24,5.67
10.35993480682373,0.14,-5.39,-2.78,6.06
10.376197814941406,0.02,-6.19,-2.39,6.63
10.3780517578125,-0.26,-6.89,-1.83,7.13
10.386721849441528,-0.52,-7.3,-1.0,7.38
10.39687204360962,-0.28,-7.32,-0.75,7.36
10.410061836242676,0.27,-7.02,-1.3,7.14
10.425781726837158,0.27,-6.79,-1.82,7.03
10.427584886550903,-0.5,-6.72,-1.27,6.85
10.436903953552246,-1.33,-7.05,0.75,7.21
10.446748733520508,-1.29,-7.73,2.67,8.27
10.460140705108643,-0.32,-8.37,2.44,8.72
10.475926876068115,0.65,-8.96,0.84,9.02
10.477770805358887,1.52,-9.17,-0.61,9.31
10.486851692199707,2.44,-8.95,-0.91,9.32
10.49691891670227,3.59,-8.63,-0.07,9.34
10.510167837142944,5.04,-8.24,0.32,9.66
10.52593469619751,6.58,-7.78,0.14,10.19
10.527782917022705,8.19,-7.57,1.33,11.23
10.536905765533447,9.89,-7.57,3.43,12.91
10.546895027160645,11.46,-7.67,5.06,14.68
10.56021499633789,12.28,-8.29,6.56,16.2
10.575967788696289,11.9,-8.36,8.32,16.75
10.577826023101807,11.12,-4.37,7.77,14.25
10.587019920349121,10.23,3.02,0.99,10.71
10.597015857696533,14.02,8.58,2.79,16.67
10.610347747802734,17.88,11.54,7.48,22.55
10.626136779785156,13.77,10.71,2.91,17.68
10.628005981445312,4.45,8.07,-3.53,9.86
10.637180805206299,-1.84,7.07,-7.2,10.25
10.647011756896973,-5.04,6.41,-7.19,10.87
10.660481929779053,-7.35,5.38,-2.92,9.56
10.676000833511353,-9.17,2.7,1.76,9.71
10.677879810333252,-9.43,-1.16,0.45,9.51
10.687135696411133,-9.24,-5.04,0.14,10.52
10.697153806686401,-7.26,-8.13,1.91,11.06
10.710325717926025,-1.38,-8.42,1.73,8.7
10.726394891738892,2.03,-5.23,1.13,5.72
10.728238821029663,3.31,-0.63,1.03,3.52
10.7372407913208,3.42,3.07,1.35,4.78
10.747107982635498,2.71,5.49,0.89,6.18
10.760739803314209,2.25,5.66,-0.05,6.09
10.776185989379883,2.13,3.51,0.03,4.1
10.7780179977417,1.27,0.95,-0.3,1.61
10.787261962890625,0.09,-0.76,-1.22,1.44
10.797286033630371,-0.88,-1.46,-1.09,2.02
10.81044888496399,-1.36,-1.24,-0.21,1.85
10.826404809951782,-1.16,-0.51,0.12,1.27
10.828250885009766,-0.64,0.14,0.27,0.7
10.837417840957642,-0.22,0.42,0.65,0.8
10.847246885299683,-0.03,0.28,0.79,0.83
10.860665798187256,-0.01,0.03,0.85,0.85
10.876328945159912,-0.08,0.2,0.66,0.69
10.878172874450684,-0.05,0.71,0.08,0.71
10.887304782867432,-0.3,1.07,-0.34,1.16
10.897418975830078,-0.59,1.14,-0.71,1.46
10.910554885864258,-0.72,0.93,-0.97,1.52
10.926448822021484,-0.67,0.65,-1.08,1.42
10.928292751312256,-0.55,0.54,-1.4,1.59
10.937572956085205,-0.64,0.62,-1.47,1.71
10.947398900985718,-0.88,0.53,-1.28,1.64
10.960927963256836,-1.08,0.08,-1.21,1.62
10.976305961608887,-0.92,-0.67,-0.8,1.39
10.978193759918213,-0.31,-1.37,-0.41,1.46
10.98751974105835,0.26,-1.75,0.02,1.76
10.997529983520508,0.43,-1.57,0.13,1.63
11.010687828063965,0.28,-0.77,-0.23,0.85
11.026480913162231,-0.2,0.33,-0.66,0.76
11.02834177017212,-0.85,1.03,-0.91,1.61
11.037632942199707,-1.7,0.97,-1.08,2.23
11.047534942626953,-2.17,0.0,-1.18,2.47
11.060956954956055,-1.64,-1.18,-0.8,2.17
11.076381921768188,-0.42,-1.77,-0.12,1.82
11.07823896408081,0.61,-1.34,0.0,1.47
11.087662696838379,0.77,-0.24,-0.07,0.8
11.09773302078247,0.08,0.39,0.17,0.43
11.110939979553223,-0.82,-0.11,-0.09,0.83
11.126568794250488,-0.32,-0.93,-0.29,1.02
11.128418922424316,1.52,-1.06,0.62,1.95
11.137773990631104,3.17,-0.29,1.85,3.68
11.147700786590576,3.49,1.12,2.36,4.35
11.161072731018066,2.47,2.48,2.03,4.04
11.176381826400757,1.02,3.23,1.29,3.62
11.178253889083862,-0.28,3.56,0.79,3.65
11.18785572052002,-1.1,3.8,0.36,3.97
11.197803974151611,-1.58,4.0,0.64,4.34
11.211002826690674,-2.19,4.15,0.58,4.72
11.226635932922363,-2.74,4.64,0.54,5.41
11.228515863418579,-3.02,5.52,1.64,6.5
11.23790979385376,-3.26,6.43,2.41,7.6
11.247763872146606,-3.87,6.96,2.06,8.22
11.26111388206482,-5.03,6.64,1.0,8.38
11.276598930358887,-6.17,5.6,-0.55,8.35
11.278458833694458,-6.88,4.15,-2.01,8.28
11.287889003753662,-7.3,2.53,-2.99,8.28
11.297945022583008,-7.69,1.14,-3.71,8.61
11.311190843582153,-8.41,-0.1,-3.78,9.22
11.32634973526001,-9.24,-1.08,-3.49,9.93
11.328220844268799,-9.51,-1.38,-3.29,10.15
11.338013887405396,-7.35,-0.94,-3.66,8.26
11.347976922988892,-3.78,0.3,-3.79,5.36
11.361248970031738,-1.04,1.71,-4.48,4.9
11.377243995666504,1.3,2.89,-5.45,6.3
11.379104852676392,2.83,3.79,-6.13,7.74
11.388006687164307,3.92,4.37,-5.62,8.12
11.398098945617676,4.61,5.16,-4.29,8.14
11.411561012268066,4.98,6.03,-2.26,8.14
11.42662787437439,4.81,6.66,-0.69,8.24
11.428518772125244,3.61,6.72,-0.95,7.68
11.438139915466309,1.07,5.98,-3.03,6.78
11.448032855987549,-0.47,5.68,-5.09,7.64
11.461501836776733,-0.73,5.62,-6.61,8.7
11.476508855819702,-0.34,5.57,-7.11,9.03
11.478389739990234,-0.43,5.62,-6.24,8.4
11.48817777633667,-0.67,5.55,-4.48,7.16
11.498145818710327,-0.7,5.19,-2.97,6.02
11.511401891708374,-0.89,4.36,-2.69,5.19
11.526844024658203,-1.22,3.19,-2.84,4.44
11.528732776641846,-1.45,1.91,-2.52,3.47
11.538269996643066,-1.74,0.73,-1.89,2.67
11.548138856887817,-2.16,-0.23,-1.46,2.61
11.561445713043213,-2.7,-0.94,-1.44,3.2
11.57700777053833,-3.2,-1.53,-1.58,3.88
11.578880786895752,-3.58,-2.16,-1.68,4.5
11.588277816772461,-3.75,-2.96,-1.78,5.09
11.598290920257568,-3.71,-3.89,-1.95,5.71
11.611639976501465,-3.69,-4.92,-2.04,6.47
11.626966953277588,-3.84,-5.99,-1.85,7.35
11.628842830657959,-3.95,-7.07,-1.42,8.22
11.638439893722534,-3.55,-8.0,-1.36,8.85
11.648340702056885,-2.53,-8.54,-1.71,9.06
11.661715030670166,-1.91,-8.8,-1.6,9.14
11.67700481414795,-1.56,-8.82,-1.38,9.06
11.678866863250732,-1.24,-8.67,-1.77,8.93
11.688295841217041,-1.24,-8.62,-1.83,8.89
11.698392868041992,-1.8,-8.99,-1.2,9.24
11.711642742156982,-2.21,-9.48,-0.41,9.74
11.727075815200806,-1.64,-9.66,0.32,9.8
11.728943824768066,-0.41,-9.59,0.6,9.61
11.738508701324463,0.7,-9.39,0.51,9.42
11.748419761657715,1.49,-9.04,0.62,9.18
11.761823892593384,2.27,-8.62,1.16,8.98
11.776849746704102,3.45,-8.09,1.1,8.86
11.778724908828735,4.84,-7.43,0.81,8.9
11.788477897644043,5.99,-6.84,1.4,9.19
11.798518896102905,7.03,-6.22,3.01,9.85
11.811771869659424,7.93,-5.38,5.02,10.81
11.827086925506592,8.97,-4.44,6.5,11.93
11.828959941864014,9.9,-3.44,6.77,12.47
11.838660717010498,10.13,-2.93,6.26,12.26
11.848557949066162,9.46,-3.33,5.87,11.62
11.861822843551636,9.0,-3.88,6.67,11.85
11.877164840698242,9.25,-1.65,6.05,11.17
11.879058837890625,8.4,3.58,-0.3,9.13
11.888624906539917,12.08,9.79,-0.62,15.56
11.899487972259521,16.23,13.77,6.4,22.22
11.912012815475464,10.83,18.22,3.47,21.47
11.927196025848389,1.67,19.05,-2.7,19.31
11.929101943969727,-2.58,15.97,-8.85,18.43
11.938747882843018,-5.18,9.33,-9.32,14.16
11.949275970458984,-8.71,1.78,-2.98,9.37
11.962056875228882,-10.97,-5.41,3.08,12.61
11.97733187675476,-9.01,-12.29,4.81,15.97
11.979231834411621,-2.84,-16.59,5.68,17.76
11.988791942596436,1.76,-12.52,7.95,14.93
11.995000839233398,1.21,-3.87,4.87,6.33
12.008238792419434,-0.71,1.36,0.39,1.58
12.015094757080078,-2.95,6.23,-0.8,6.93
12.027876853942871,-4.03,9.62,-0.36,10.43
12.03509783744812,-2.83,9.17,-0.88,9.63
12.045098781585693,-0.52,4.65,-0.57,4.71
12.058554887771606,1.28,-0.37,0.19,1.34
12.065192699432373,2.65,-3.5,-0.02,4.39
12.078403949737549,3.7,-4.38,-0.32,5.74
12.085177898406982,4.27,-2.96,0.32,5.2
12.09524393081665,3.62,-0.34,1.15,3.81
12.108588695526123,2.42,1.48,1.21,3.08
12.115175724029541,1.12,1.97,0.4,2.3
12.128028869628906,-0.09,1.51,0.35,1.55
12.135479927062988,-1.04,0.62,0.69,1.39
12.145189762115479,-1.63,-0.31,0.27,1.68
12.158488750457764,-1.96,-0.9,-0.09,2.15
12.16523790359497,-1.74,-0.97,-0.11,1.99
12.177992820739746,-0.99,-0.55,-0.31,1.17
12.185323715209961,0.03,0.09,-0.46,0.46
12.195425987243652,0.74,0.48,-0.47,0.99
12.20860481262207,0.87,0.5,-0.95,1.38
12.226311922073364,0.47,0.32,-1.42,1.52
12.22818899154663,0.05,0.13,-1.19,1.19
12.235368728637695,-0.09,0.01,-0.58,0.58
12.245491027832031,-0.18,-0.09,-0.44,0.48
12.258814811706543,-0.45,-0.2,-0.59,0.76
12.27643084526062,-0.74,-0.23,-0.64,1.0
12.278451919555664,-0.84,-0.14,-0.17,0.86
12.285460948944092,-0.63,0.01,0.49,0.79
12.295570850372314,-0.19,0.22,0.17,0.33
12.308952808380127,0.01,0.59,-0.25,0.64
12.326659917831421,-0.42,0.8,-0.43,1.0
12.32856273651123,-1.11,0.82,-1.02,1.71
12.335515022277832,-1.32,0.74,-0.86,1.74
12.34538984298706,-0.84,0.46,-0.07,0.96
12.358747005462646,-0.16,0.13,-0.37,0.42
12.378074884414673,0.09,0.14,-0.8,0.81
12.379965782165527,-0.12,0.38,-0.52,0.65
12.389256000518799,-0.29,0.58,-0.16,0.66
12.399810791015625,-0.26,0.6,0.18,0.67
12.412487030029297,-0.1,0.48,0.19,0.52
12.427924871444702,-0.06,0.48,-0.49,0.68
12.429746866226196,-0.15,0.6,-0.92,1.1
12.43942403793335,-0.27,0.64,-0.81,1.06
12.449817895889282,-0.39,0.52,-0.96,1.15
12.462710857391357,-0.34,0.15,-0.99,1.05
12.477989912033081,-0.13,-0.39,-0.69,0.8
12.479866027832031,0.17,-0.73,-0.41,0.85
12.489329814910889,0.2,-0.73,-0.11,0.76
12.499561786651611,0.06,-0.61,-0.11,0.62
12.512617826461792,-0.19,-0.46,-0.5,0.7
12.527822017669678,-0.58,-0.4,-1.09,1.29
12.529683828353882,-0.98,-0.39,-1.3,1.67
12.539557933807373,-1.21,-0.32,-0.94,1.56
12.549728870391846,-1.17,-0.22,-1.06,1.59
12.562794923782349,-1.03,-0.06,-1.3,1.65
12.577805042266846,-1.15,-0.18,-1.19,1.66
12.579686880111694,-1.36,-0.63,-1.18,1.9
12.589503765106201,-1.01,-0.99,-0.95,1.7
12.599785804748535,-0.3,-1.21,-0.48,1.33
12.612807750701904,0.33,-1.08,-0.32,1.17
12.628098011016846,0.65,-0.46,-0.1,0.8
12.629971027374268,0.54,0.24,-0.04,0.59
12.639680862426758,0.15,0.6,-0.06,0.62
12.649746894836426,0.07,0.43,0.14,0.45
12.663055896759033,0.74,-0.11,0.55,0.92
12.678154945373535,1.89,-0.54,0.73,2.09
12.680035829544067,2.71,-0.58,0.95,2.92
12.689637899398804,2.82,-0.15,1.26,3.09
12.699750900268555,2.68,0.75,1.73,3.27
12.712982892990112,2.31,1.81,1.74,3.41
12.728266716003418,1.34,2.71,1.53,3.38
12.73009991645813,-0.24,3.4,1.49,3.71
12.739773750305176,-2.15,3.9,1.32,4.64
12.749724864959717,-3.84,4.34,0.68,5.83
12.763165950775146,-5.03,4.76,0.1,6.92
12.778339862823486,-5.68,5.16,0.13,7.67
12.780195713043213,-5.92,5.34,0.36,7.98
12.789804935455322,-6.14,5.39,-0.17,8.17
12.799820899963379,-6.39,5.2,-0.39,8.24
12.813141822814941,-6.58,4.63,-0.43,8.05
12.82858681678772,-6.69,3.63,-0.32,7.61
12.830436706542969,-6.36,2.3,-0.82,6.81
12.840009689331055,-5.99,1.06,-1.47,6.25
12.849762916564941,-5.82,-0.17,-1.91,6.12
12.863057851791382,-5.57,-1.14,-2.0,6.02
12.878681898117065,-4.85,-1.71,-2.96,5.93
12.880548000335693,-3.53,-1.86,-3.58,5.36
12.889910697937012,-2.22,-0.86,-3.95,4.61
12.899847030639648,-1.43,1.02,-4.63,4.95
12.913175821304321,-0.41,2.57,-5.39,5.98
12.928789854049683,1.06,3.31,-5.6,6.59
12.930638790130615,2.54,3.19,-5.22,6.62
12.940071821212769,4.61,2.65,-4.75,7.13
12.94988203048706,7.2,2.32,-4.21,8.65
12.963199853897095,9.46,2.07,-3.49,10.29
12.978676795959473,10.7,2.1,-3.04,11.31
12.980566024780273,11.14,2.64,-2.56,11.73
12.990017890930176,10.15,3.41,-1.9,10.87
13.000072956085205,5.09,3.3,-1.7,6.29
13.0132417678833,1.02,2.54,-2.14,3.47
13.02878189086914,-0.85,1.76,-2.79,3.4
13.030673027038574,-1.95,0.99,-3.29,3.95
13.040207862854004,-2.93,0.2,-3.52,4.58
13.049985885620117,-3.77,-0.66,-3.32,5.06
13.063459873199463,-4.27,-1.54,-3.01,5.44
13.078924894332886,-4.42,-2.3,-2.77,5.7
13.080780029296875,-4.38,-2.97,-2.54,5.87
13.090155839920044,-4.3,-3.71,-2.16,6.07
13.100230693817139,-4.23,-4.45,-1.64,6.35
13.11347484588623,-4.18,-5.04,-1.26,6.66
13.129002809524536,-3.88,-5.4,-1.42,6.79
13.130843877792358,-3.47,-5.55,-1.9,6.81
13.14030385017395,-3.23,-5.65,-2.0,6.8
13.150141716003418,-3.18,-5.73,-1.71,6.77
13.16353702545166,-3.01,-5.7,-1.34,6.58
13.179391860961914,-3.25,-5.74,-1.2,6.7
13.181217908859253,-3.29,-5.7,-1.42,6.73
13.190295696258545,-3.27,-5.63,-1.68,6.72
13.200271844863892,-3.37,-5.67,-1.64,6.79
13.213502883911133,-3.59,-5.79,-1.38,6.95
13.229170799255371,-4.08,-5.97,-1.18,7.32
13.231015920639038,-4.47,-5.89,-1.04,7.46
13.240480899810791,-4.42,-5.49,-0.95,7.11
13.25026273727417,-4.23,-4.9,-0.89,6.53
13.263532876968384,-3.71,-4.22,-0.99,5.7
13.279287815093994,-2.92,-3.54,-1.1,4.71
13.281144857406616,-2.0,-2.95,-0.88,3.67
13.290367841720581,-1.5,-2.45,-0.17,2.87
13.300477981567383,-0.74,-1.88,0.31,2.04
13.31352186203003,0.15,-1.32,0.45,1.4
13.328983783721924,0.73,-0.92,0.64,1.33
13.330822944641113,1.05,-0.57,1.14,1.65
13.340507984161377,1.49,-0.02,1.78,2.32
13.350430011749268,2.33,0.9,1.19,2.76
13.363856792449951,3.21,1.99,-0.26,3.78
13.379753828048706,3.65,3.09,-1.09,4.9
13.381582736968994,3.52,3.96,-0.3,5.3
13.390483856201172,3.16,4.44,1.53,5.66
13.400588989257812,3.2,4.49,2.63,6.1
13.413691997528076,3.6,4.38,2.21,6.08
13.430476903915405,4.34,4.29,1.47,6.27
13.432994842529297,4.98,4.05,1.01,6.49
13.440649032592773,5.09,3.53,0.91,6.26
13.450628757476807,4.74,2.93,1.11,5.68
13.464058876037598,4.24,2.55,1.19,5.08
13.479904890060425,3.74,2.55,1.49,4.76
13.481669902801514,3.25,2.5,1.99,4.55
13.490633964538574,2.74,2.24,2.09,4.11
13.500848770141602,2.34,1.65,1.72,3.34
13.513944864273071,2.19,0.9,1.29,2.69
13.529887914657593,2.19,0.28,0.94,2.39
13.531667709350586,2.49,-0.09,0.66,2.57
13.540787696838379,3.68,0.06,-0.09,3.68
13.55080270767212,5.45,1.34,-1.53,5.81
13.564144849777222,6.44,3.06,-3.48,7.93
13.580105781555176,4.98,4.31,-4.39,7.91
13.581923007965088,1.86,4.33,-0.57,4.74
13.590786933898926,-2.1,3.34,3.96,5.58
13.60102891921997,-4.15,2.04,3.88,6.03
13.613988876342773,-3.22,0.17,1.26,3.46
13.629430770874023,-1.51,-1.35,-0.32,2.05
13.631256818771362,-1.02,-2.03,-0.08,2.27
13.641036987304688,-1.07,-1.55,0.49,1.94
13.650960922241211,-0.71,-0.26,-0.1,0.76
13.664203882217407,0.35,0.97,-1.62,1.92
13.67984676361084,1.53,1.44,-2.31,3.12
13.681656837463379,2.24,0.99,-1.4,2.82
13.690985918045044,2.27,0.17,-0.22,2.28
13.701123714447021,1.86,-0.46,0.06,1.91
13.71421480178833,1.16,-0.59,-0.42,1.36
13.730097770690918,0.36,-0.35,-0.42,0.65
13.73189401626587,-0.42,0.0,0.13,0.43
13.741131782531738,-1.09,0.17,0.23,1.12
13.751098871231079,-1.58,0.09,-0.24,1.6
13.764362812042236,-1.64,-0.12,-0.57,1.74
13.780457973480225,-1.05,-0.18,-0.65,1.24
13.782989025115967,-0.24,-0.09,-0.3,0.39
13.79104995727539,0.46,0.11,0.19,0.5
13.801212787628174,0.88,0.26,0.33,0.97
13.814231872558594,0.98,0.35,0.15,1.05
13.830453872680664,0.96,0.33,-0.13,1.02
13.832956790924072,0.9,0.23,-0.31,0.97
13.841232776641846,0.75,0.09,-0.38,0.84
13.85118579864502,0.62,0.0,-0.32,0.69
13.864453792572021,0.44,-0.02,-0.19,0.47
13.880721807479858,0.14,-0.01,0.09,0.16
13.883227825164795,0.0,0.06,0.39,0.39
13.89113187789917,-0.05,0.1,0.5,0.51
13.901290893554688,0.02,0.07,0.13,0.14
13.914283752441406,0.18,0.05,-0.17,0.25
13.93061089515686,0.3,0.05,-0.22,0.37
13.932955741882324,0.25,0.06,0.0,0.25
13.941327810287476,0.2,0.03,0.32,0.37
13.951290845870972,0.19,-0.04,0.18,0.26
13.96468186378479,0.25,-0.02,0.15,0.29
13.980947017669678,0.34,0.07,0.47,0.58
13.98346996307373,0.33,0.09,0.18,0.38
13.9912588596344,0.24,0.07,-0.16,0.29
14.0014967918396,0.12,0.02,-0.05,0.13
14.014570713043213,0.14,0.01,0.27,0.3
14.030999898910522,0.35,0.08,0.42,0.55
14.03350281715393,0.58,0.17,0.35,0.69
14.041630744934082,0.67,0.19,0.2,0.72
14.051537990570068,0.57,0.17,0.14,0.61
14.064710855484009,0.33,0.13,0.15,0.38
14.081130981445312,0.11,0.07,0.13,0.18
14.083688735961914,0.01,0.04,0.03,0.05
14.091455936431885,0.05,0.03,-0.07,0.09
14.101615905761719,0.19,0.07,-0.14,0.24
14.114754915237427,0.22,0.1,-0.1,0.26
14.130912780761719,0.18,0.09,-0.16,0.25
14.133448839187622,0.11,0.01,-0.24,0.26
14.14160680770874,-0.01,-0.06,-0.37,0.37
14.15158987045288,-0.07,-0.08,-0.69,0.69
14.164996862411499,-0.21,-0.1,-1.09,1.11
14.181324005126953,-0.44,-0.15,-1.38,1.45
14.183825016021729,-0.62,-0.14,-1.45,1.58
14.19151782989502,-0.85,-0.07,-1.2,1.47
14.201704025268555,-0.45,-0.01,-0.83,0.94
14.214897871017456,0.29,0.0,-0.44,0.52
14.231320858001709,0.67,0.09,-0.19,0.7
14.233826875686646,0.77,0.15,0.07,0.78
14.241683959960938,0.65,0.12,0.19,0.68
14.25171184539795,0.42,0.02,0.15,0.44
14.265020847320557,0.14,-0.02,0.2,0.24
14.281396865844727,-0.06,-0.04,0.23,0.24
14.28377890586853,-0.13,-0.03,0.19,0.23
14.291695833206177,-0.11,-0.01,0.13,0.17
14.301892757415771,-0.07,0.03,0.15,0.16
14.31483793258667,-0.01,0.05,0.16,0.16
14.331082820892334,0.09,0.06,0.13,0.16
14.33333683013916,0.24,0.05,0.13,0.27
14.341908931732178,0.25,0.02,0.06,0.25
14.351861953735352,0.09,0.01,-0.02,0.09
14.365155696868896,-0.16,-0.01,-0.11,0.19
14.381438732147217,-0.31,-0.03,-0.21,0.37
14.384008884429932,-0.36,-0.08,-0.3,0.47
14.39183783531189,-0.32,-0.1,-0.42,0.53
14.401890754699707,-0.26,-0.12,-0.47,0.55
14.414949893951416,-0.19,-0.1,-0.3,0.36
14.432073831558228,-0.16,-0.03,-0.11,0.19
14.433985710144043,-0.14,0.0,0.05,0.14
14.44187879562378,-0.15,0.0,0.1,0.18
14.451850891113281,-0.13,-0.01,0.11,0.17
14.465960025787354,-0.02,0.0,0.15,0.15
14.471837997436523,0.06,0.0,0.14,0.15
14.494569778442383,0.12,0.02,0.1,0.15
14.496418952941895,0.11,0.04,0.13,0.17
14.502068042755127,0.12,0.0,0.16,0.2
14.515292882919312,0.11,-0.03,0.15,0.18
14.532388687133789,0.06,0.0,0.12,0.13
14.534238815307617,0.02,0.05,0.08,0.09
14.54209280014038,-0.02,0.08,0.05,0.09
14.552043914794922,-0.07,0.06,0.0,0.09
14.565993785858154,-0.01,-0.01,-0.09,0.09
14.572192907333374,0.03,-0.06,-0.16,0.17
14.595261812210083,0.04,-0.07,-0.13,0.15
14.597146034240723,0.08,-0.06,-0.07,0.12
14.602278709411621,0.1,-0.01,-0.04,0.1
14.615301847457886,0.16,0.02,-0.03,0.16
14.631862878799438,0.14,0.01,-0.01,0.14
14.634294033050537,0.08,0.0,0.03,0.08
14.642125844955444,0.0,0.0,0.08,0.08
14.652166843414307,-0.04,0.03,0.11,0.12
14.665889739990234,-0.07,0.02,0.11,0.13
14.672101020812988,-0.01,0.0,0.07,0.07
14.695385932922363,0.05,-0.04,0.04,0.07
14.697197914123535,0.07,-0.03,0.02,0.07
14.702221870422363,0.04,0.01,0.02,0.04
14.715191841125488,-0.03,0.01,0.02,0.03
14.731369018554688,-0.1,-0.03,0.02,0.1
14.73388671875,-0.13,-0.12,-0.04,0.18
14.742333889007568,-0.17,-0.14,-0.11,0.24
14.752265930175781,-0.2,-0.08,-0.15,0.26
14.766225814819336,-0.2,0.0,-0.18,0.26
14.772281885147095,-0.18,0.09,-0.15,0.25
14.795615911483765,-0.19,0.12,-0.05,0.23
14.797455787658691,-0.16,0.05,0.01,0.16
14.802497863769531,-0.1,-0.04,0.05,0.11
14.81613302230835,-0.1,-0.05,0.07,0.13
14.822430849075317,-0.11,0.01,0.14,0.17
14.845472812652588,-0.09,0.08,0.24,0.26
14.847362995147705,-0.04,0.09,0.32,0.33
14.852437973022461,0.05,0.03,0.33,0.33
14.866180896759033,0.15,-0.02,0.25,0.29
14.87238883972168,0.18,-0.04,0.13,0.22
14.895635843276978,0.13,0.0,0.07,0.14
14.897482872009277,0.07,0.07,0.05,0.11
14.90241003036499,0.07,0.1,0.05,0.13
14.916133880615234,0.13,0.08,0.03,0.15
14.922542810440063,0.15,0.04,-0.02,0.15
14.945559024810791,0.12,0.02,-0.1,0.15
14.947333812713623,0.01,-0.02,-0.15,0.15
14.952486991882324,-0.09,-0.05,-0.12,0.15
14.966370820999146,-0.14,-0.06,-0.1,0.18
14.972396850585938,-0.13,-0.06,-0.12,0.18
14.995567798614502,-0.1,-0.02,-0.17,0.19
14.997455835342407,-0.16,0.03,-0.16,0.22
15.002620697021484,-0.16,0.02,-0.15,0.22
15.016357898712158,-0.1,0.0,-0.16,0.18
15.02263069152832,-0.04,-0.03,-0.21,0.21
15.045650959014893,-0.04,-0.04,-0.23,0.23
15.047456741333008,-0.01,-0.03,-0.18,0.18
15.052591800689697,0.04,-0.03,-0.12,0.13
15.066764831542969,0.11,0.02,-0.05,0.12
15.072652816772461,0.16,0.05,-0.03,0.17
15.09568190574646,0.11,0.07,-0.02,0.13
15.097434997558594,0.06,0.07,0.0,0.09
15.102855920791626,0.0,0.04,0.01,0.04
15.116819858551025,-0.03,0.02,0.02,0.04
15.12281084060669,-0.05,0.0,0.01,0.05
15.145633697509766,-0.06,-0.03,-0.05,0.08
15.147472858428955,-0.07,-0.04,-0.09,0.12
15.152793884277344,-0.08,-0.02,-0.12,0.14
15.167050838470459,-0.04,0.01,-0.09,0.09
15.17280888557434,0.04,0.04,-0.04,0.06
15.195639848709106,0.15,0.04,-0.03,0.15
15.197352886199951,0.2,0.04,-0.04,0.2
15.2030508518219,0.14,-0.02,-0.07,0.15
15.216702938079834,0.05,-0.07,-0.09,0.12
15.223015785217285,-0.05,-0.02,-0.04,0.06
15.245790004730225,-0.11,0.08,0.05,0.14
15.247643947601318,-0.09,0.13,0.1,0.18
15.25291395187378,0.02,0.08,0.11,0.13
15.266611814498901,0.1,0.02,0.11,0.15
15.272830963134766,0.1,-0.03,0.1,0.14
15.295702934265137,0.04,-0.03,0.09,0.1
15.29749870300293,-0.06,0.01,0.03,0.06
15.304698944091797,-0.1,0.05,-0.11,0.15
15.316712856292725,0.01,0.07,-0.1,0.12
15.323118925094604,0.06,-0.01,-0.02,0.06
15.345530033111572,0.04,-0.05,-0.05,0.08
15.347275733947754,-0.01,-0.05,-0.1,0.11
15.352903842926025,-0.12,-0.03,-0.14,0.18
15.366767883300781,-0.18,-0.02,-0.14,0.22
15.37290096282959,-0.18,-0.04,-0.14,0.23
15.395401000976562,-0.1,-0.02,-0.18,0.2
15.397243976593018,-0.02,0.01,-0.17,0.17
15.403164863586426,0.03,0.03,-0.12,0.12
15.41712474822998,0.09,0.05,-0.08,0.13
15.4231858253479,0.1,0.06,-0.01,0.11
15.446435928344727,0.09,0.04,0.03,0.1
15.448230743408203,0.09,-0.02,0.02,0.09
15.453135967254639,0.07,-0.04,0.07,0.1
15.466969013214111,0.06,0.01,0.09,0.1
15.473142862319946,0.04,0.07,0.07,0.1
15.495720863342285,0.02,0.09,0.05,0.1
15.497546911239624,-0.02,0.04,0.01,0.04
15.503199815750122,-0.04,-0.02,0.01,0.04
15.51679801940918,-0.01,-0.04,0.02,0.04
15.523348808288574,0.05,-0.03,0.05,0.07
15.54585075378418,0.11,0.03,0.05,0.12
15.547629833221436,0.12,0.1,0.06,0.16
15.553232908248901,0.07,0.1,0.07,0.14
15.56698989868164,-0.01,0.04,0.05,0.06
15.573349952697754,-0.07,-0.02,0.03,0.07
15.59608268737793,-0.09,-0.01,0.05,0.1
15.597943782806396,-0.04,0.02,0.04,0.06
15.603415966033936,0.01,0.05,0.03,0.05
15.617027759552002,0.04,0.03,0.02,0.05
15.623443841934204,0.05,-0.02,-0.06,0.08
15.6458740234375,0.04,-0.02,-0.1,0.1
15.647673845291138,0.02,-0.04,-0.05,0.06
15.653333902359009,0.0,-0.01,-0.05,0.05
15.667321920394897,0.0,0.03,-0.06,0.06
15.673445701599121,0.01,0.07,-0.03,0.07
15.695985794067383,0.04,0.07,-0.02,0.08
15.6976957321167,0.03,-0.01,-0.02,0.03
15.70347285270691,-0.01,-0.01,-0.05,0.05
15.717185974121094,0.0,-0.06,-0.07,0.09
15.723582744598389,0.02,-0.05,-0.05,0.07
15.745819807052612,0.02,0.01,0.02,0.03
15.747607707977295,0.07,0.04,0.1,0.12
15.753551006317139,0.09,0.07,0.11,0.15
15.767224788665771,0.12,0.03,0.08,0.14
15.773522853851318,0.05,0.01,0.08,0.09
15.796154975891113,0.02,0.05,0.12,0.13
15.797894954681396,0.03,0.05,0.13,0.14
15.803687810897827,0.01,0.03,0.11,0.11
15.8171968460083,0.0,0.03,0.1,0.1
15.823672771453857,-0.03,0.0,0.06,0.06
15.846150875091553,-0.05,-0.02,-0.05,0.07
15.848004817962646,-0.06,-0.03,-0.09,0.11
15.853602886199951,-0.06,-0.01,-0.07,0.09
15.867572784423828,0.01,0.03,-0.08,0.08
15.873610019683838,0.06,0.05,-0.08,0.11
15.896109819412231,0.07,0.02,-0.03,0.07
15.897830963134766,0.07,-0.01,-0.02,0.07
15.903785705566406,-0.01,-0.02,-0.06,0.06
15.917332887649536,-0.12,-0.03,-0.09,0.15
15.923796892166138,-0.19,-0.04,-0.11,0.22
15.946085929870605,-0.19,-0.02,-0.1,0.21
15.947897911071777,-0.12,-0.01,-0.11,0.16
15.953824043273926,-0.01,0.03,-0.09,0.09
15.967630863189697,0.02,0.06,-0.1,0.11
15.973767757415771,0.01,0.03,-0.11,0.11
15.995625019073486,-0.04,0.01,-0.11,0.11
15.997416973114014,-0.06,0.04,-0.06,0.09
16.001399993896484,-0.02,0.06,0.01,0.06
16.013278007507324,0.01,0.05,0.01,0.05
16.029634952545166,-0.01,0.0,-0.04,0.04
16.03147602081299,-0.04,-0.04,-0.09,0.1
16.04008197784424,-0.08,-0.02,-0.09,0.12
16.050045013427734,-0.07,0.02,-0.02,0.07
16.063596725463867,0.04,0.07,0.03,0.08
16.080314874649048,0.18,0.05,0.02,0.18
16.08274483680725,0.29,0.02,0.03,0.29
16.09029769897461,0.26,0.0,0.04,0.26
16.100197792053223,0.17,0.03,0.04,0.17
16.113468885421753,0.09,0.06,0.01,0.1
16.12991690635681,-0.01,0.06,-0.05,0.07
16.131700038909912,-0.08,0.02,-0.1,0.12
16.140244960784912,-0.12,-0.02,-0.1,0.15
16.15011501312256,-0.08,-0.06,-0.04,0.1
16.163545846939087,-0.01,-0.02,-0.01,0.02
16.180039882659912,0.05,0.03,-0.03,0.06
16.18247079849243,0.04,0.08,-0.05,0.1
16.190167903900146,-0.01,0.08,-0.05,0.09
16.200227737426758,-0.07,0.04,-0.06,0.1
16.213740825653076,-0.09,-0.04,-0.09,0.13
16.23018503189087,-0.06,-0.11,-0.1,0.16
16.232569694519043,0.02,-0.07,-0.03,0.07
16.240360736846924,0.15,0.04,0.04,0.16
16.250435829162598,0.22,0.09,0.08,0.25
16.263547897338867,0.18,0.09,0.1,0.22
16.280165910720825,0.07,0.04,0.06,0.1
16.28257703781128,-0.08,-0.01,0.04,0.09
16.29054284095764,-0.21,-0.04,0.02,0.21
16.30064582824707,-0.22,-0.03,-0.01,0.22
16.31374979019165,-0.12,-0.02,-0.03,0.12
16.330537796020508,0.01,0.0,-0.07,0.07
16.333024978637695,0.05,0.04,-0.1,0.11
16.340523719787598,0.0,0.08,-0.13,0.15
16.350504875183105,-0.05,0.08,-0.15,0.17
16.36808681488037,-0.1,-0.03,-0.58,0.58
16.3731427192688,0.15,-0.12,-0.61,0.63
16.396812915802002,0.47,0.08,0.4,0.62
16.399088859558105,0.47,0.12,0.23,0.53
16.403074741363525,0.12,0.14,0.17,0.25
16.416908740997314,-0.12,0.06,0.24,0.27
16.423224925994873,-0.35,-0.05,0.14,0.38
16.447518825531006,-0.46,-0.11,0.13,0.49
16.450103759765625,-0.26,-0.11,0.06,0.28
16.45449185371399,-0.1,-0.01,-0.25,0.26
16.467460870742798,0.19,0.04,-0.18,0.26
16.473031997680664,0.46,0.11,-0.01,0.47
16.482948780059814,0.5,0.11,-0.05,0.51
16.493048906326294,0.38,0.09,-0.15,0.41
16.503087043762207,0.24,0.07,-0.16,0.29
16.516243934631348,0.12,0.03,-0.12,0.17
16.52307391166687,0.01,0.0,-0.03,0.03
16.53290891647339,-0.07,-0.06,0.06,0.11
16.543051719665527,-0.08,-0.06,0.12,0.15
16.553001880645752,-0.09,-0.02,0.15,0.17
16.56647777557373,-0.19,0.03,0.11,0.22
16.573088884353638,-0.28,0.07,0.01,0.28
16.583204746246338,-0.31,0.02,-0.02,0.31
16.593159914016724,-0.24,-0.08,-0.07,0.26
16.603210926055908,-0.05,-0.09,-0.14,0.17
16.616357803344727,0.07,-0.02,-0.18,0.19
16.623219966888428,0.06,0.1,-0.19,0.22
16.63310480117798,0.0,0.14,-0.17,0.22
16.64323902130127,-0.07,0.09,-0.17,0.2
16.65315294265747,-0.16,-0.01,-0.17,0.23
16.666639804840088,-0.19,-0.09,-0.13,0.24
16.67314386367798,-0.16,-0.09,-0.07,0.19
16.68324375152588,-0.1,-0.02,-0.01,0.1
16.69325304031372,-0.01,0.05,0.04,0.06
16.703430891036987,0.06,0.06,0.06,0.1
16.71721386909485,0.05,0.04,0.0,0.06
16.723480701446533,0.0,0.02,-0.05,0.05
16.73335599899292,-0.01,0.01,-0.06,0.06
16.74398684501648,0.01,0.01,-0.06,0.06
16.753921031951904,0.05,0.0,-0.05,0.07
16.76914691925049,0.05,-0.01,-0.01,0.05
16.77363681793213,0.09,0.0,0.02,0.09
16.78396701812744,0.09,0.03,0.03,0.09
16.793729782104492,0.05,0.05,0.03,0.07
16.803874015808105,0.02,0.05,0.01,0.05
16.819046020507812,-0.02,0.04,-0.03,0.05
16.82427191734314,-0.07,-0.01,-0.06,0.09
16.834303855895996,-0.08,-0.03,-0.07,0.11
16.84433603286743,-0.03,-0.02,-0.08,0.08
16.853806018829346,0.05,-0.02,-0.07,0.08
16.869340896606445,0.08,0.0,-0.06,0.1
16.87397789955139,0.11,0.03,-0.02,0.11
16.884166717529297,0.09,0.06,0.02,0.1
16.894214868545532,0.04,0.05,0.01,0.06
16.904233932495117,-0.02,0.0,0.0,0.02
16.918567895889282,-0.03,-0.02,0.02,0.04
16.924036026000977,-0.03,0.01,0.0,0.03
16.933828830718994,0.02,0.01,-0.02,0.03
16.94407081604004,0.04,0.0,-0.04,0.05
16.9543719291687,0.06,0.02,-0.05,0.08
16.969825744628906,0.06,0.03,-0.03,0.07
16.973920822143555,0.06,0.03,-0.04,0.07
16.98462677001953,0.07,0.02,0.0,0.07
16.994457721710205,0.09,0.01,0.07,0.11
17.004053831100464,0.09,0.01,0.1,0.13
17.019269943237305,0.07,0.03,0.06,0.09
17.024147987365723,0.0,0.05,0.06,0.07
17.034082889556885,-0.05,0.03,0.05,0.07
17.04457378387451,-0.01,0.0,0.0,0.01
17.054191827774048,0.02,0.02,-0.03,0.04
17.069413900375366,0.04,0.02,-0.06,0.07
17.074111938476562,0.03,0.02,-0.09,0.09
17.084399700164795,0.05,0.0,-0.1,0.11
17.094494819641113,0.05,-0.01,-0.08,0.09
17.10433292388916,0.09,0.0,-0.02,0.09
17.119963884353638,0.09,0.0,0.03,0.09
17.124441862106323,0.09,0.01,0.08,0.12
17.13432788848877,0.05,0.04,0.1,0.11
17.14504384994507,-0.01,0.06,0.11,0.12
17.15413784980774,-0.05,0.06,0.11,0.13
17.17034673690796,-0.07,0.02,0.06,0.09
17.174248695373535,-0.07,-0.01,0.01,0.07
17.184391975402832,-0.02,-0.02,-0.06,0.06
17.19429588317871,0.01,-0.02,-0.12,0.12
17.20476484298706,0.06,0.02,-0.11,0.12
17.220178842544556,0.06,0.02,-0.12,0.13
17.224486827850342,0.03,0.03,-0.11,0.11
17.23445987701416,0.01,0.04,-0.09,0.09
17.244874954223633,-0.04,0.01,-0.04,0.05
17.254458904266357,-0.02,-0.01,0.01,0.02
17.270333766937256,0.0,-0.01,0.03,0.03
17.274827003479004,0.02,-0.01,0.02,0.03
17.285095691680908,0.0,0.01,0.04,0.04
17.29510498046875,0.01,0.03,0.07,0.07
17.305119037628174,0.08,0.03,0.1,0.13
17.320292949676514,0.14,0.04,0.07,0.16
17.32488489151001,0.15,0.03,0.04,0.15
17.335091829299927,0.1,0.02,0.01,0.1
17.34512186050415,0.01,0.0,-0.01,0.01
17.355095863342285,-0.05,0.0,0.0,0.05
17.369809865951538,-0.07,-0.03,-0.04,0.08
17.37501287460327,-0.1,-0.02,-0.06,0.11
17.385218858718872,-0.11,0.01,-0.04,0.11
17.395256996154785,-0.07,0.02,0.02,0.07
17.405200004577637,-0.02,0.02,0.04,0.04
17.41934871673584,-0.01,0.01,0.04,0.04
17.424790859222412,0.0,0.0,-0.02,0.02
17.43490481376648,-0.02,0.0,-0.03,0.03
17.444854736328125,0.0,0.0,-0.03,0.03
17.45511484146118,0.0,0.06,-0.13,0.14
17.469705820083618,-0.09,-0.01,-0.35,0.36
17.474824905395508,0.05,0.0,-0.1,0.11
17.484755992889404,0.27,-0.03,0.05,0.27
17.49502992630005,0.21,0.03,0.04,0.21
17.505239009857178,0.09,0.07,0.05,0.12
17.520042896270752,-0.07,0.08,0.13,0.16
17.52491784095764,-0.18,0.05,0.16,0.24
17.534684896469116,-0.23,-0.01,0.11,0.25
17.54515790939331,-0.19,-0.05,0.04,0.2
17.555153846740723,-0.18,-0.14,-0.02,0.22
