time,ax,ay,az,atotal
0.0018200874328613281,0.14,0.04,0.06,0.15
0.013358116149902344,0.2,0.01,-0.02,0.2
0.023611068725585938,0.09,-0.02,-0.07,0.11
0.030820131301879883,0.1,0.01,-0.06,0.11
0.04360699653625488,0.06,0.03,0.03,0.07
0.05110526084899902,-0.09,0.03,0.06,0.11
0.06355929374694824,-0.14,0.0,-0.04,0.14
0.07306027412414551,-0.14,0.02,-0.1,0.17
0.08067512512207031,-0.09,0.02,-0.03,0.09
0.0935511589050293,-0.02,0.01,-0.04,0.04
0.10071825981140137,-0.02,-0.02,0.0,0.02
0.11364102363586426,-0.01,0.02,0.03,0.03
0.12348818778991699,0.02,0.02,0.07,0.07
0.13084101676940918,-0.08,-0.06,0.13,0.16
0.14354729652404785,-0.05,-0.03,0.01,0.05
0.15125727653503418,-0.03,-0.04,-0.06,0.07
0.16322016716003418,-0.04,-0.03,-0.05,0.07
0.17305707931518555,0.0,0.01,-0.05,0.05
0.180711030960083,0.12,-0.01,0.01,0.12
0.19350028038024902,0.16,-0.1,-0.02,0.18
0.2008371353149414,0.08,-0.05,0.03,0.09
0.21368718147277832,-0.06,0.07,-0.03,0.09
0.22396111488342285,-0.12,0.11,-0.05,0.17
0.2308351993560791,-0.13,0.05,-0.09,0.16
0.24393820762634277,-0.09,0.05,-0.02,0.1
0.25145506858825684,-0.02,0.05,0.01,0.05
0.26387715339660645,-0.12,-0.03,0.07,0.14
0.27375197410583496,0.0,0.0,0.0,0.0
0.28069210052490234,0.37,0.0,-0.11,0.38
0.2938401699066162,0.28,-0.08,-0.05,0.29
0.3009350299835205,0.04,-0.04,0.07,0.09
0.313399076461792,0.05,-0.03,0.09,0.1
0.3238091468811035,0.08,0.03,-0.16,0.18
0.33100295066833496,-0.08,0.04,-0.02,0.09
0.343616247177124,-0.12,0.04,0.0,0.12
0.35146117210388184,-0.11,0.02,0.04,0.11
0.3637411594390869,-0.1,0.04,-0.04,0.11
0.37335896492004395,0.07,-0.01,-0.11,0.13
0.38092708587646484,0.0,-0.03,0.01,0.03
0.39388108253479004,-0.03,0.06,-0.06,0.09
0.40101027488708496,0.01,-0.01,0.1,0.1
0.41412901878356934,-0.07,-0.08,0.07,0.12
0.42403411865234375,-0.12,-0.02,-0.01,0.12
0.431016206741333,-0.07,0.08,-0.02,0.1
0.44370007514953613,-0.03,-0.03,-0.08,0.09
0.45139622688293457,0.01,-0.09,-0.12,0.15
0.4635810852050781,0.12,-0.05,-0.01,0.13
0.4737560749053955,0.07,0.05,-0.03,0.09
0.4810502529144287,-0.1,0.1,-0.08,0.16
0.49388623237609863,-0.1,0.05,-0.07,0.13
0.5012731552124023,-0.1,-0.01,-0.01,0.1
0.5138511657714844,-0.1,0.06,0.0,0.11
0.5243079662322998,-0.06,0.11,-0.05,0.13
0.531102180480957,0.05,0.0,0.07,0.08
0.5439951419830322,0.05,-0.05,0.12,0.13
0.5516602993011475,-0.1,0.04,0.06,0.12
0.5641441345214844,-0.13,0.03,0.01,0.13
0.5735642910003662,-0.08,0.05,-0.1,0.13
0.5809600353240967,0.03,0.06,-0.12,0.13
0.5938050746917725,0.2,0.01,-0.19,0.27
0.6012370586395264,0.02,-0.01,-0.1,0.1
0.6139061450958252,0.0,0.01,-0.05,0.05
0.6240360736846924,0.04,-0.06,0.0,0.07
0.6310789585113525,-0.03,-0.06,-0.01,0.06
0.6439611911773682,0.03,-0.02,-0.02,0.04
0.6520371437072754,0.1,-0.01,-0.2,0.22
0.6639730930328369,0.25,-0.04,0.04,0.25
0.6736500263214111,-0.19,-0.09,0.28,0.35
0.6812241077423096,-0.08,0.05,-0.18,0.2
0.6940662860870361,-0.01,0.03,0.09,0.09
0.7011971473693848,0.06,-0.02,0.14,0.15
0.7137820720672607,-0.01,-0.02,0.12,0.12
0.7240502834320068,-0.15,0.06,-0.02,0.16
0.7311789989471436,-0.1,-0.02,-0.35,0.36
0.7441842555999756,-0.16,-0.09,-0.03,0.18
0.7542991638183594,-0.13,0.09,-0.06,0.16
0.7638940811157227,0.0,0.08,-0.13,0.15
0.7736032009124756,-0.03,0.01,-0.13,0.13
0.7812902927398682,-0.04,-0.04,-0.14,0.15
0.7940661907196045,0.02,0.03,-0.08,0.08
0.8036601543426514,0.11,0.1,-0.05,0.15
0.8140060901641846,0.1,0.02,-0.13,0.16
0.8243420124053955,0.05,0.01,-0.05,0.07
0.8312830924987793,0.0,0.0,0.17,0.17
0.8440670967102051,0.21,-0.06,0.16,0.27
0.8538460731506348,0.3,-0.26,0.38,0.54
0.8639781475067139,-0.08,0.11,-0.2,0.24
0.8738861083984375,-0.14,0.17,0.06,0.22
0.8813192844390869,0.06,0.0,-0.05,0.07
0.8942861557006836,0.25,-0.43,-0.15,0.51
0.9036781787872314,0.4,-0.56,0.07,0.69
0.9140231609344482,0.25,-0.05,0.08,0.26
0.9243342876434326,-0.24,0.4,-0.29,0.54
0.9313101768493652,-0.52,0.28,-0.34,0.68
0.9441859722137451,-0.39,0.05,-0.37,0.53
0.9537742137908936,-0.19,0.0,-0.34,0.38
0.9638340473175049,0.35,-0.02,-0.14,0.37
0.9738001823425293,0.54,-0.07,0.03,0.54
0.9814531803131104,0.55,-0.05,-0.04,0.55
0.9941620826721191,-0.09,-0.04,-0.05,0.11
1.0032551288604736,-0.49,0.05,0.71,0.86
1.0139062404632568,0.2,-0.01,0.37,0.42
1.0241851806640625,0.37,-0.04,0.55,0.66
1.0315172672271729,0.35,0.01,0.96,1.02
1.044262170791626,0.06,-0.03,0.53,0.53
1.0538060665130615,-0.33,-0.03,0.25,0.41
1.064134120941162,-0.63,-0.06,0.35,0.72
1.074105978012085,-0.92,-0.11,0.24,0.95
1.0815801620483398,-1.34,-0.17,0.16,1.36
1.0943052768707275,-1.67,-0.3,0.35,1.73
1.103365182876587,-1.83,-0.41,0.24,1.89
1.1139299869537354,-1.92,-0.41,-0.1,1.96
1.124298095703125,-1.36,-0.1,-0.07,1.36
1.1315362453460693,0.07,0.38,0.7,0.79
1.1443302631378174,1.34,0.34,1.34,1.92
1.153611183166504,1.68,-0.18,1.08,2.0
1.164093255996704,1.36,-0.47,0.95,1.72
1.1740331649780273,0.55,-0.22,0.71,0.92
1.1814501285552979,-0.01,0.07,0.88,0.88
1.1943671703338623,-0.18,-0.07,0.89,0.91
1.203249216079712,-0.27,-0.16,0.4,0.5
1.2140929698944092,-0.5,-0.18,0.0,0.53
1.224553108215332,-0.73,-0.14,-0.16,0.76
1.2314951419830322,-0.94,-0.06,-0.45,1.04
1.244347095489502,-0.57,0.05,-0.31,0.65
1.2536160945892334,0.14,0.17,-0.38,0.43
1.2640690803527832,0.98,0.27,-0.52,1.14
1.274183988571167,1.53,0.2,-0.57,1.64
1.2815682888031006,1.45,-0.04,-0.12,1.45
1.2943522930145264,1.13,-0.15,0.59,1.28
1.3031013011932373,0.75,0.0,0.51,0.9
1.3141529560089111,0.41,0.14,0.33,0.54
1.3244731426239014,0.24,0.28,-0.08,0.37
1.3316700458526611,-0.04,0.2,-1.02,1.04
1.3445961475372314,-0.17,-0.03,-1.24,1.25
1.3535611629486084,0.05,0.09,-0.83,0.83
1.3644211292266846,0.22,0.3,-0.85,0.92
1.3742001056671143,-0.17,0.24,-0.89,0.93
1.381629228591919,-0.94,0.1,-0.66,1.15
1.3943421840667725,-1.39,-0.19,-0.58,1.51
1.4029231071472168,-1.23,0.0,-0.37,1.28
1.4143140316009521,-0.4,0.37,0.1,0.55
1.4246490001678467,0.17,-0.02,0.15,0.22
1.4316542148590088,0.27,-0.29,0.53,0.66
1.444568157196045,-0.07,-0.01,0.44,0.44
1.4533991813659668,-0.71,0.14,0.38,0.81
1.4642822742462158,-0.67,-0.14,0.4,0.79
1.4742043018341064,-0.55,-0.18,-0.01,0.57
1.4816691875457764,-0.49,0.0,0.0,0.49
1.4944779872894287,-0.38,0.09,0.09,0.4
1.502859115600586,-0.37,-0.02,0.09,0.38
1.5141642093658447,-0.62,-0.09,0.25,0.67
1.5247290134429932,-0.83,0.02,0.22,0.85
1.5318071842193604,-0.7,0.12,0.27,0.75
1.5444929599761963,-0.86,0.16,0.61,1.06
1.5534780025482178,-1.2,0.03,0.45,1.28
1.5642480850219727,-1.33,-0.15,0.5,1.42
1.574223279953003,-1.76,-0.13,0.45,1.82
1.5817492008209229,-1.92,-0.15,-0.06,1.92
1.5945861339569092,-1.31,-0.06,-0.36,1.35
1.602734088897705,-0.87,-0.14,-0.23,0.91
1.614361047744751,-0.25,-0.07,0.06,0.26
1.6246659755706787,0.09,0.35,-0.33,0.48
1.6317741870880127,0.05,0.29,0.27,0.39
1.6445891857147217,0.27,-0.05,-0.15,0.31
1.6534969806671143,-0.1,0.08,-0.16,0.2
1.6642673015594482,-0.76,-0.06,0.47,0.89
1.6743991374969482,-1.29,0.35,0.35,1.38
1.6817991733551025,-1.07,0.67,-0.46,1.34
1.6944501399993896,-0.54,0.17,-0.42,0.7
1.7027781009674072,-0.15,-0.04,-0.35,0.38
1.7143571376800537,0.56,-0.1,-1.61,1.7
1.7247490882873535,1.27,0.5,-0.73,1.54
1.7318470478057861,1.64,1.04,-0.68,2.05
1.7446751594543457,2.17,1.28,-1.8,3.09
1.7533061504364014,1.91,1.61,-0.89,2.65
1.7645001411437988,1.36,1.78,-1.24,2.56
1.7744152545928955,0.91,2.36,-0.85,2.66
1.782236099243164,0.86,3.5,-0.38,3.62
1.7946851253509521,1.06,5.32,1.23,5.56
1.8028199672698975,1.13,6.92,1.44,7.15
1.8143820762634277,0.71,8.46,2.34,8.8
1.8248202800750732,-0.03,9.44,3.4,10.03
1.8313100337982178,-1.53,10.01,3.7,10.78
1.8435990810394287,-3.98,9.72,4.24,11.32
1.8518259525299072,-6.74,8.58,3.02,11.32
1.86399507522583,-9.37,6.4,1.42,11.43
1.8721082210540771,-11.17,3.82,-0.31,11.8
1.8813080787658691,-10.41,2.58,-2.73,11.06
1.893460988998413,-6.21,4.39,-3.21,8.25
1.9018709659576416,-2.81,6.99,-1.39,7.66
1.913938283920288,-1.73,7.9,-4.14,9.08
1.922178030014038,-2.07,9.6,-4.85,10.95
1.9325401782989502,-2.55,11.79,-1.0,12.1
1.9444372653961182,-1.8,13.18,-0.48,13.31
1.9518201351165771,-1.51,13.91,-1.3,14.05
1.964839220046997,-2.28,14.3,-0.45,14.48
1.9729020595550537,-4.49,13.43,-0.52,14.17
1.982464075088501,-6.13,11.71,-0.08,13.21
1.9934401512145996,-6.57,10.67,0.1,12.53
2.002502202987671,-5.88,10.33,0.64,11.9
2.0147392749786377,-4.62,10.14,1.0,11.18
2.025017023086548,-4.2,9.37,0.93,10.31
2.032336950302124,-4.59,8.21,0.25,9.4
2.0451509952545166,-5.26,6.77,-0.28,8.57
2.052962064743042,-5.54,5.29,-1.0,7.72
2.0647499561309814,-5.34,3.92,-1.94,6.9
2.074627161026001,-4.88,2.79,-2.54,6.16
2.0824241638183594,-4.32,1.48,-3.73,5.89
2.094945192337036,-3.76,0.15,-4.41,5.79
2.102463960647583,-3.02,-1.26,-4.26,5.37
2.11464524269104,-2.19,-2.58,-4.06,5.28
2.1250240802764893,-1.65,-3.78,-3.75,5.57
2.132456064224243,-1.48,-4.81,-3.79,6.3
2.144890069961548,-1.95,-5.77,-3.6,7.07
2.1529042720794678,-2.88,-6.69,-3.38,8.02
2.1651270389556885,-3.96,-7.44,-3.02,8.95
2.174633264541626,-4.71,-8.07,-3.11,9.84
2.182443141937256,-4.98,-8.64,-3.12,10.44
2.19490909576416,-4.79,-9.24,-2.93,10.81
2.202183961868286,-4.34,-9.89,-2.59,11.1
2.2151870727539062,-3.87,-10.5,-1.56,11.29
2.224999189376831,-3.55,-10.98,-1.23,11.6
2.2325069904327393,-3.12,-10.92,-0.92,11.39
2.244845151901245,-2.34,-9.75,-0.75,10.05
2.2528159618377686,-1.54,-8.56,-0.6,8.71
2.2651631832122803,-0.42,-8.29,0.07,8.3
2.2747771739959717,0.42,-8.77,0.27,8.78
2.282478094100952,1.06,-9.18,0.19,9.24
2.294823169708252,1.7,-9.04,0.32,9.2
2.3022820949554443,2.48,-8.65,0.23,9.0
2.315106153488159,3.49,-8.24,0.05,8.94
2.3251101970672607,4.4,-7.76,0.29,8.92
2.332573175430298,5.27,-7.2,0.4,8.93
2.344984292984009,6.26,-6.58,0.2,9.08
2.3528151512145996,7.34,-6.05,0.31,9.51
2.365307092666626,8.45,-5.81,-0.32,10.25
2.374887228012085,9.24,-5.89,-1.01,11.0
2.3825953006744385,10.19,-5.98,-0.73,11.83
2.395066022872925,10.76,-5.86,-0.75,12.27
2.402130126953125,10.8,-5.52,-0.58,12.14
2.415213108062744,10.05,-5.09,0.28,11.26
2.425246000289917,8.92,-4.86,0.64,10.17
2.4327571392059326,8.19,-4.75,0.83,9.5
2.4450180530548096,7.43,-4.65,1.4,8.87
2.452714204788208,6.45,-5.09,2.11,8.48
2.4652860164642334,6.92,-5.9,-0.47,9.1
2.474961042404175,6.16,-5.46,-17.61,19.43
2.4828431606292725,2.8,-3.28,-30.02,30.32
2.4943771362304688,5.07,15.83,-19.88,25.91
2.5016701221466064,14.03,47.65,50.91,71.12
2.5143260955810547,10.7,19.14,20.06,29.71
2.5225770473480225,1.76,2.1,-17.45,17.66
2.532189130783081,-3.73,-2.14,-9.62,10.53
2.5440561771392822,-6.25,-6.24,8.19,12.04
2.551737070083618,-4.51,-8.4,-3.0,9.99
2.564838171005249,-2.69,-10.14,-8.92,13.77
2.572620153427124,-0.15,-11.88,-2.95,12.24
2.582202196121216,4.77,-9.44,2.63,10.89
2.5938751697540283,7.33,3.08,1.11,8.02
2.6017510890960693,6.41,15.05,-0.43,16.36
2.6147401332855225,5.64,7.57,1.41,9.54
2.622789144515991,2.75,-0.44,0.35,2.8
2.6322619915008545,-0.63,0.26,-0.71,0.98
2.6440391540527344,-1.35,0.55,-0.33,1.49
2.6517131328582764,-0.41,-0.81,-0.03,0.9
2.6648662090301514,1.0,-1.81,-0.2,2.07
2.6727402210235596,2.35,-1.64,0.02,2.86
2.6822071075439453,2.94,-0.9,0.03,3.07
2.6943671703338623,2.68,-0.58,0.2,2.74
2.7017710208892822,1.9,-0.28,-0.26,1.93
2.715144157409668,0.98,0.32,0.67,1.22
2.7228281497955322,0.77,1.65,0.5,1.88
2.73222017288208,0.94,2.13,0.65,2.41
2.744094133377075,1.02,0.85,0.34,1.37
2.7518770694732666,1.17,0.14,0.06,1.17
2.7651050090789795,1.14,-0.17,-0.33,1.19
2.7727129459381104,1.24,0.02,-0.89,1.52
2.7822961807250977,1.22,0.62,-0.98,1.68
2.7941110134124756,1.17,0.65,-1.04,1.69
2.8020191192626953,0.96,0.31,-1.69,1.96
2.817934274673462,0.74,0.31,-1.23,1.46
2.8229000568389893,0.67,0.7,-0.88,1.3
2.832181215286255,0.72,0.69,-0.81,1.28
2.844194173812866,0.87,0.54,-0.06,1.02
2.8519389629364014,0.99,0.23,0.09,1.02
2.8648741245269775,0.92,-0.07,-0.38,0.99
2.872866153717041,0.65,0.18,-0.15,0.69
2.882282018661499,0.37,0.58,-0.19,0.71
2.894165277481079,-0.43,1.23,-0.1,1.3
2.9019131660461426,-1.1,1.66,0.23,2.0
2.915004014968872,-1.59,1.73,0.09,2.35
2.922842264175415,-2.03,1.7,0.24,2.65
2.932274103164673,-2.23,1.53,0.49,2.74
2.9441111087799072,-2.04,0.95,0.46,2.29
2.9518630504608154,-1.51,0.07,0.52,1.59
2.964975118637085,-1.17,-0.98,0.61,1.64
2.972870111465454,-0.91,-1.94,0.41,2.18
2.982340097427368,-0.66,-2.37,0.66,2.54
2.9941680431365967,-0.84,-2.26,0.62,2.48
3.002119302749634,-1.48,-1.65,-0.1,2.21
3.0148379802703857,-2.27,-1.08,-0.17,2.51
3.022806167602539,-2.28,-1.14,-0.72,2.64
3.0323832035064697,-1.78,-1.35,-0.17,2.24
3.0443570613861084,-1.17,-1.31,-0.04,1.75
3.052103281021118,-0.46,-0.9,0.05,1.01
3.0649731159210205,-0.23,-0.33,0.71,0.81
3.072916269302368,-0.4,-0.22,0.98,1.08
3.082458257675171,-0.5,-0.45,0.48,0.82
3.094310998916626,-0.72,-0.22,0.35,0.83
3.102113962173462,-0.95,0.28,0.61,1.16
3.115082025527954,-0.67,0.6,0.21,0.92
3.1230010986328125,-0.01,1.01,-0.17,1.02
3.1324989795684814,1.17,1.76,-0.05,2.11
3.144534111022949,2.84,1.9,-0.75,3.49
3.152092218399048,4.18,1.37,-0.54,4.43
3.16808819770813,5.12,1.4,-1.27,5.45
3.172948122024536,5.6,2.03,-2.79,6.57
3.18245530128479,5.62,3.58,-3.5,7.52
3.194309949874878,4.65,5.49,-3.21,7.87
3.202183961868286,3.17,7.16,-2.21,8.13
3.2151291370391846,1.42,9.06,-1.22,9.25
3.2240030765533447,-0.58,11.48,0.6,11.51
3.2324392795562744,-2.98,13.79,2.26,14.28
3.244784116744995,-6.37,14.02,3.88,15.88
3.253127098083496,-9.74,11.56,1.76,15.21
3.2658650875091553,-11.61,7.68,-2.7,14.17
3.275330066680908,-11.63,3.6,-6.46,13.78
3.2831079959869385,-7.52,1.26,-5.61,9.46
3.2954580783843994,-2.81,1.73,-3.01,4.46
3.3027560710906982,0.25,2.82,-3.28,4.33
3.315662145614624,2.71,3.17,1.01,4.29
3.325688123703003,4.12,3.5,2.51,5.96
3.3331892490386963,4.42,4.23,0.42,6.13
3.3455140590667725,4.02,4.96,-0.26,6.38
3.353114128112793,0.93,4.67,-1.96,5.14
3.3656721115112305,-2.94,4.36,-1.48,5.46
3.375530958175659,-5.41,4.42,0.34,6.99
3.3830771446228027,-6.12,4.2,0.81,7.46
3.3955390453338623,-4.43,3.73,-0.28,5.79
3.4028351306915283,-2.27,3.49,-1.13,4.31
3.415900945663452,-0.95,3.7,-1.94,4.28
3.4258651733398438,-0.43,4.01,-2.13,4.56
3.4330501556396484,-1.12,3.87,-1.8,4.41
3.445568084716797,-3.76,3.18,-1.18,5.06
3.453278064727783,-6.3,2.37,-0.35,6.74
3.465855121612549,-7.79,1.37,0.92,7.96
3.475507974624634,-8.12,0.3,1.48,8.25
3.4830191135406494,-8.32,-0.51,1.29,8.43
3.4956581592559814,-8.0,-1.13,1.6,8.23
3.5029091835021973,-7.17,-1.52,1.94,7.58
3.5158402919769287,-6.51,-1.97,2.59,7.27
3.5258772373199463,-6.05,-2.55,2.76,7.12
3.533034086227417,-6.06,-3.08,2.42,7.21
3.545854091644287,-6.55,-3.57,2.31,7.8
3.5533859729766846,-7.24,-4.0,2.56,8.65
3.5660130977630615,-7.78,-4.32,2.69,9.29
3.575453996658325,-7.84,-4.67,3.01,9.6
3.582918167114258,-7.38,-4.96,3.28,9.47
3.595637083053589,-6.44,-5.02,3.33,8.81
3.603008985519409,-5.44,-4.59,3.35,7.86
3.6158621311187744,-4.59,-3.82,3.47,6.9
3.625962972640991,-3.8,-3.49,3.61,6.29
3.633104085922241,-3.15,-3.58,3.46,5.89
3.6458232402801514,-2.86,-3.9,3.15,5.77
3.6534650325775146,-2.93,-4.19,3.0,5.92
3.6658661365509033,-3.13,-4.3,3.04,6.12
3.675464153289795,-3.27,-4.31,2.95,6.16
3.6829450130462646,-3.26,-4.28,2.74,6.03
3.695777177810669,-2.99,-4.15,2.7,5.78
3.7030081748962402,-2.47,-3.8,2.78,5.31
3.7160141468048096,-1.93,-3.37,2.83,4.8
3.7258050441741943,-1.58,-3.11,2.79,4.46
3.7329041957855225,-1.4,-2.97,2.81,4.32
3.7457990646362305,-1.25,-2.76,2.75,4.09
3.7535111904144287,-1.1,-2.42,2.53,3.66
3.766191244125366,-0.96,-2.02,2.43,3.3
3.775442123413086,-0.81,-1.59,2.27,2.88
3.7828710079193115,-0.65,-1.14,2.11,2.48
3.795851945877075,-0.35,-0.76,1.86,2.03
3.8030550479888916,0.18,-0.37,1.37,1.43
3.8161211013793945,0.68,0.09,0.89,1.12
3.826164960861206,1.17,0.49,0.79,1.49
3.832988977432251,1.45,0.8,0.58,1.75
3.8460919857025146,1.55,1.02,0.21,1.86
3.8535571098327637,1.78,1.25,-0.02,2.17
3.8663489818573,2.21,1.56,0.1,2.7
3.8755850791931152,2.86,2.05,0.18,3.52
3.8832132816314697,3.53,2.7,0.17,4.44
3.8959500789642334,4.03,3.09,-0.1,5.07
3.9032609462738037,4.52,3.08,-0.7,5.51
3.9162070751190186,5.14,3.11,-1.2,6.12
3.9261791706085205,5.71,3.21,-1.35,6.68
3.9329850673675537,6.2,2.99,-1.54,7.05
3.9459640979766846,6.63,2.7,-2.13,7.46
3.953662157058716,7.25,2.55,-2.57,8.1
3.9663121700286865,7.82,2.36,-2.66,8.59
3.9756829738616943,8.17,2.29,-2.35,8.8
3.983161211013794,8.33,2.22,-1.83,8.81
3.9961161613464355,8.23,2.02,-1.41,8.59
4.003183126449585,7.27,2.43,-1.84,7.88
4.016443967819214,6.15,3.3,-0.91,7.03
4.026086091995239,6.39,4.7,0.7,7.96
4.0330071449279785,2.74,7.55,3.76,8.86
4.0467870235443115,-4.32,10.39,10.37,15.3
4.053105115890503,-6.26,12.78,4.95,15.06
4.065737009048462,-6.6,15.24,-1.31,16.65
4.0758912563323975,-6.65,11.11,1.37,13.02
4.08322811126709,-2.87,-0.25,4.62,5.44
4.095973253250122,0.49,-4.03,-5.33,6.69
4.10321307182312,3.76,-6.14,-5.69,9.17
4.11625599861145,6.78,-7.0,-2.94,10.17
4.1261491775512695,9.7,-4.58,-1.14,10.78
4.133392095565796,10.73,0.25,-1.28,10.8
4.146023988723755,10.1,3.35,-1.85,10.8
4.1536571979522705,7.39,3.24,-2.65,8.49
4.16637110710144,2.98,0.94,-2.06,3.74
4.1757261753082275,0.18,-0.3,-0.43,0.55
4.1831910610198975,-2.51,-0.57,1.06,2.78
4.19615626335144,-4.26,-0.85,1.65,4.64
4.2032880783081055,-3.62,-0.64,0.69,3.74
4.216329097747803,1.55,0.87,-0.93,2.0
4.226186990737915,5.64,1.74,-0.56,5.92
4.233325242996216,6.44,1.04,-0.72,6.56
4.246112108230591,3.64,-0.15,-1.49,3.93
4.253793001174927,0.78,-0.32,-0.81,1.16
4.26630425453186,-1.24,0.2,-0.08,1.25
4.2758262157440186,-2.45,0.41,0.27,2.49
4.28321099281311,-2.61,0.26,0.02,2.62
4.296152114868164,-1.21,-0.01,-0.3,1.24
4.303176164627075,0.3,-0.11,-0.25,0.4
4.316462278366089,0.91,0.11,-0.47,1.03
4.326102018356323,0.65,0.29,-0.57,0.91
4.3334801197052,0.02,0.37,-0.44,0.57
4.346168279647827,-0.77,0.49,-0.56,1.07
4.353759050369263,-0.97,0.3,-0.04,1.01
4.36620306968689,-1.05,0.18,0.15,1.07
4.375896215438843,-1.03,0.38,0.31,1.14
4.383381128311157,-1.15,0.52,0.42,1.33
4.396482229232788,-1.64,0.26,0.45,1.72
4.404206037521362,-2.06,-0.17,0.46,2.11
4.417979955673218,-2.22,-0.28,0.24,2.25
4.426254987716675,-2.41,0.02,0.38,2.43
4.433377981185913,-2.43,0.22,0.21,2.44
4.446467161178589,-1.71,0.64,0.29,1.84
4.453772068023682,-0.78,0.8,0.36,1.17
4.467941045761108,0.57,0.64,0.04,0.85
4.475874185562134,1.03,1.07,0.56,1.58
4.483474016189575,0.47,1.43,0.52,1.59
4.496491193771362,-0.66,1.02,0.22,1.23
4.503359079360962,-1.93,1.05,0.31,2.21
4.517991065979004,-2.18,2.14,0.76,3.14
4.526335954666138,-1.78,3.54,1.14,4.12
4.533657073974609,-0.96,4.88,0.43,4.99
4.546441078186035,0.68,5.73,0.87,5.83
4.553893089294434,2.15,5.76,0.87,6.2
4.567861080169678,2.13,5.74,0.37,6.13
4.576005220413208,0.27,6.34,0.14,6.34
4.58354115486145,-1.83,6.84,0.28,7.08
4.596762180328369,-4.06,7.06,1.18,8.22
4.603438138961792,-6.21,7.05,2.1,9.62
4.6182920932769775,-7.91,7.2,3.56,11.27
4.626287221908569,-9.1,7.42,5.57,12.99
4.633657217025757,-10.14,6.79,6.85,13.99
4.646559000015259,-11.27,4.69,6.22,13.7
4.653947114944458,-11.49,2.34,3.68,12.28
4.668050050735474,-10.43,1.66,0.28,10.56
4.675979137420654,-9.54,2.68,-2.2,10.15
4.683542013168335,-6.6,5.69,-3.91,9.55
4.6967551708221436,-3.12,7.62,-4.12,9.2
4.703593969345093,-1.97,8.35,-2.91,9.05
4.720679044723511,-0.73,9.79,-2.98,10.25
4.724315166473389,1.33,11.96,-1.22,12.09
4.733819246292114,4.3,14.08,-0.2,14.72
4.745727300643921,6.16,16.05,-1.57,17.26
4.753573179244995,5.75,17.82,-2.0,18.83
4.7686402797698975,0.06,17.05,-1.44,17.11
4.773820161819458,-6.61,13.83,-1.88,15.44
4.783034086227417,-8.55,10.91,-0.99,13.89
4.795263051986694,-8.86,8.45,0.98,12.28
4.803007125854492,-7.15,6.9,2.7,10.29
4.816410064697266,-3.11,6.68,2.67,7.83
4.823726177215576,-0.63,6.59,3.07,7.29
4.833141088485718,0.16,5.85,3.09,6.61
4.845146179199219,0.51,5.46,3.31,6.4
4.853039026260376,0.73,6.85,4.11,8.02
4.866163969039917,-0.82,3.04,4.61,5.58
4.873872995376587,-2.73,-2.84,5.55,6.8
4.8831140995025635,-3.09,-5.4,5.39,8.23
4.895378112792969,-2.59,-5.38,5.38,8.03
4.903005123138428,-1.84,-4.7,5.5,7.46
4.916153192520142,-1.45,-5.04,4.82,7.12
4.923833131790161,-1.76,-6.78,4.33,8.23
4.93309211730957,-1.94,-7.94,3.95,9.07
4.94544529914856,-1.9,-8.55,3.2,9.32
4.953115224838257,-1.81,-8.54,3.0,9.23
4.966046094894409,-1.66,-8.12,3.06,8.83
4.973931074142456,-1.45,-7.76,3.21,8.52
4.9831702709198,-1.35,-7.76,3.36,8.56
4.995321035385132,-1.17,-8.3,3.67,9.15
5.003103971481323,-0.96,-9.21,3.87,10.03
5.016109228134155,-0.71,-9.86,3.88,10.61
5.024027109146118,-0.3,-9.59,3.47,10.2
5.033189058303833,0.41,-9.52,3.52,10.15
5.045360088348389,1.22,-9.74,3.0,10.26
5.053192138671875,1.76,-9.61,2.28,10.03
5.06647801399231,2.62,-9.22,1.66,9.72
5.074098110198975,3.87,-8.5,1.27,9.42
5.083163022994995,5.15,-7.74,1.28,9.38
5.0958051681518555,6.23,-7.08,1.07,9.49
5.1031529903411865,7.16,-6.6,0.29,9.74
5.120070219039917,8.23,-5.95,0.07,10.15
5.123902082443237,9.3,-5.1,0.05,10.6
5.133257150650024,10.08,-4.51,-0.17,11.04
5.145401239395142,10.37,-4.42,-0.55,11.28
5.153205156326294,10.15,-4.7,-1.6,11.29
5.166249990463257,9.69,-5.12,-2.62,11.26
5.174058198928833,9.56,-5.54,-3.02,11.45
5.183228254318237,9.74,-5.98,-2.61,11.72
5.195787191390991,10.07,-6.34,-1.96,12.05
5.203266143798828,9.6,-5.83,-5.51,12.51
5.220618963241577,6.2,-3.82,-21.97,23.14
5.224783182144165,5.26,3.37,-29.65,30.3
5.233684301376343,18.46,59.18,3.04,62.06
5.245723009109497,28.86,53.09,53.43,80.66
5.253276109695435,6.39,-1.58,-2.06,6.89
5.27031397819519,-2.7,-7.05,-19.38,20.79
5.274245977401733,-6.36,-9.17,-14.75,18.49
5.28329610824585,-11.72,-14.64,1.64,18.82
5.295902967453003,-11.17,-18.18,0.82,21.35
5.303385019302368,-3.6,-17.98,4.46,18.87
5.320561170578003,1.07,-7.29,3.2,8.03
5.324176073074341,-2.97,1.83,-2.73,4.42
5.333405256271362,0.14,7.23,-0.18,7.23
5.345881223678589,5.2,11.37,-2.12,12.68
5.353372097015381,8.69,10.29,1.02,13.5
5.3704140186309814,8.43,4.07,0.11,9.36
5.3741490840911865,5.55,-2.4,-1.98,6.36
5.383371114730835,2.49,-4.09,-0.98,4.88
5.395928144454956,0.53,-1.97,-0.29,2.06
5.403426170349121,0.75,0.3,-0.54,0.97
5.420628070831299,1.19,0.58,-0.2,1.33
5.424065113067627,1.48,-0.04,0.09,1.48
5.433379173278809,1.24,-0.64,0.26,1.41
5.445880174636841,1.14,-0.04,0.14,1.14
5.453441143035889,1.12,0.53,0.06,1.24
5.4705259799957275,1.17,0.54,0.26,1.31
5.474138975143433,1.1,0.77,0.04,1.34
5.483399152755737,0.9,1.09,-0.43,1.47
5.495962142944336,0.98,1.26,-0.33,1.63
5.503558158874512,1.33,0.71,-0.43,1.56
5.520611047744751,1.37,-0.05,-0.4,1.42
5.524180173873901,1.12,-0.07,-0.31,1.16
5.533442258834839,0.69,0.11,-1.14,1.33
5.546128034591675,0.29,0.03,-1.56,1.58
5.553478956222534,0.02,0.07,-1.63,1.63
5.5703651905059814,0.11,0.39,-0.92,1.0
5.574319124221802,0.22,0.72,-1.18,1.39
5.583491086959839,0.29,0.73,-0.82,1.13
5.59608006477356,0.48,0.26,-0.67,0.86
5.603506088256836,0.39,-0.42,-0.44,0.72
5.620635271072388,0.01,-0.78,0.13,0.79
5.624214172363281,-0.28,-0.71,0.49,0.9
5.633486986160278,-0.58,-0.32,0.82,1.05
5.645945072174072,-0.68,0.32,0.94,1.2
5.653496980667114,-0.89,0.92,1.07,1.66
5.670515298843384,-1.16,1.05,0.79,1.75
5.6742470264434814,-1.17,0.96,0.67,1.65
5.683501958847046,-1.04,0.29,0.82,1.35
5.696038007736206,-1.06,-0.49,0.68,1.35
5.703495264053345,-0.96,-1.0,0.63,1.52
5.720558166503906,-0.95,-1.53,0.29,1.82
5.724350214004517,-1.61,-1.62,0.01,2.28
5.733587980270386,-2.46,-1.22,-0.06,2.74
5.746051073074341,-3.01,-0.83,0.01,3.12
5.753600120544434,-2.48,-0.54,0.21,2.54
5.770420074462891,-1.73,-0.21,0.61,1.84
5.774372100830078,-1.79,0.31,0.73,1.95
5.78359317779541,-1.81,0.75,0.76,2.1
5.7961461544036865,-2.05,0.68,1.06,2.4
5.803513288497925,-2.23,0.2,0.26,2.25
5.820540189743042,-2.19,0.1,0.04,2.19
5.824350118637085,-1.47,-0.04,-0.21,1.48
5.833559274673462,-0.22,-0.34,0.03,0.4
5.846100091934204,0.74,-0.23,1.42,1.61
5.853644132614136,1.2,0.27,2.32,2.62
5.869781255722046,1.66,0.27,1.71,2.39
5.874333143234253,1.41,0.46,1.65,2.21
5.883510112762451,1.41,1.09,-0.81,1.95
5.896048069000244,2.16,1.12,-1.92,3.09
5.903523206710815,2.85,0.89,-2.33,3.78
5.919916152954102,3.8,1.28,-2.76,4.86
5.924354076385498,5.02,1.93,-2.69,6.01
5.933746099472046,6.1,2.81,-3.33,7.49
5.94635796546936,6.53,4.84,-2.91,8.63
5.9537060260772705,5.19,7.13,-3.72,9.57
5.970407247543335,3.7,9.72,-2.16,10.62
5.97527813911438,1.96,12.77,0.74,12.94
5.984295129776001,-0.61,15.26,3.77,15.73
5.996994256973267,-4.0,16.08,6.41,17.76
6.004269123077393,-7.44,13.76,3.86,16.11
6.018182039260864,-9.82,7.07,-1.52,12.19
6.027198076248169,-9.92,0.89,-8.06,12.81
6.034584283828735,-8.14,-0.24,-7.04,10.76
6.047569990158081,-6.63,0.93,-3.67,7.63
6.054904222488403,-4.82,2.37,-1.76,5.65
6.06837010383606,-2.19,3.94,-0.07,4.5
6.076828241348267,0.31,4.56,-1.0,4.67
6.084458112716675,0.93,5.12,-3.67,6.36
6.097787141799927,2.37,6.5,-2.1,7.23
6.104475259780884,3.74,7.64,1.29,8.6
6.118187189102173,1.25,7.48,0.38,7.59
6.1272971630096436,-3.76,6.37,-1.35,7.51
6.134563207626343,-7.29,4.93,-1.85,8.99
6.147625207901001,-6.86,4.19,-1.61,8.19
6.154861211776733,-4.61,3.92,-1.53,6.24
6.168067216873169,-3.65,4.18,-0.85,5.61
6.176943063735962,-3.4,4.42,-0.42,5.59
6.184355974197388,-3.6,4.38,-0.05,5.66
6.197537183761597,-4.42,3.75,0.5,5.81
6.204411268234253,-5.47,2.63,1.1,6.16
6.218073129653931,-6.37,1.54,1.88,6.81
6.227265119552612,-6.9,0.57,2.44,7.34
6.2345170974731445,-7.01,-0.54,3.23,7.73
6.2476489543914795,-6.9,-1.7,3.64,7.98
6.254899263381958,-6.98,-2.86,4.02,8.54
6.2680089473724365,-7.38,-3.91,4.69,9.57
6.277004957199097,-7.96,-4.71,4.96,10.49
6.2845141887664795,-8.6,-5.22,4.85,11.16
6.297775983810425,-9.24,-5.58,4.8,11.81
6.304474115371704,-9.49,-5.86,4.87,12.17
6.317829132080078,-9.22,-6.13,5.15,12.21
6.32739520072937,-8.42,-6.3,5.4,11.82
6.334674119949341,-7.19,-6.33,5.49,11.04
6.347675085067749,-6.05,-5.96,5.71,10.23
6.355054140090942,-5.64,-4.79,6.0,9.52
6.3678600788116455,-4.94,-3.78,6.07,8.69
6.377032041549683,-3.93,-3.2,5.78,7.68
6.384598016738892,-3.38,-3.07,5.21,6.92
6.397825002670288,-3.27,-3.23,4.73,6.59
6.404539108276367,-3.3,-3.42,4.67,6.66
6.418003082275391,-3.27,-3.4,4.85,6.76
6.427862167358398,-3.18,-3.14,4.88,6.61
6.434608221054077,-2.83,-2.9,4.7,6.2
6.447741270065308,-2.3,-2.57,4.58,5.73
6.4550230503082275,-1.85,-2.23,4.38,5.25
6.467941999435425,-1.82,-2.06,3.89,4.76
6.4770941734313965,-1.92,-2.0,3.47,4.44
6.484596014022827,-1.59,-2.05,3.22,4.13
6.497650146484375,-0.67,-1.94,2.85,3.51
6.504544019699097,0.48,-1.4,2.41,2.82
6.517807245254517,1.74,-0.41,1.84,2.56
6.5278260707855225,2.7,0.68,1.49,3.15
6.534792184829712,3.43,1.56,1.35,4.0
6.547561168670654,3.85,2.05,1.74,4.69
6.5552191734313965,3.92,1.97,1.69,4.7
6.567896127700806,3.69,1.6,1.13,4.17
6.577125072479248,3.46,1.43,0.14,3.74
6.584670066833496,3.67,1.59,-1.04,4.13
6.5978240966796875,4.18,2.08,-1.49,4.9
6.604661226272583,4.58,2.72,-1.55,5.54
6.617742300033569,4.84,3.53,-1.36,6.14
6.628117084503174,5.21,3.85,-1.22,6.59
6.6348512172698975,5.88,3.3,-1.65,6.94
6.647696256637573,6.84,2.63,-2.23,7.65
6.655205965042114,7.77,2.25,-2.34,8.42
6.667590141296387,8.58,2.15,-2.51,9.19
6.677196264266968,8.85,1.87,-2.95,9.51
6.684674978256226,8.55,2.1,-3.95,9.64
6.697895288467407,7.72,2.51,-3.15,8.7
6.704653978347778,7.94,3.57,-3.93,9.55
6.717505216598511,5.63,6.73,-1.91,8.97
6.7283711433410645,0.76,12.61,8.08,14.99
6.734739065170288,-2.65,16.35,4.63,17.19
6.747760057449341,-4.13,17.51,-2.66,18.18
6.755121946334839,-4.43,8.57,1.63,9.78
6.767474174499512,-2.41,-1.72,3.74,4.77
6.777520179748535,-1.82,-5.96,-2.9,6.87
6.784711122512817,0.67,-8.9,-1.87,9.11
6.797840118408203,4.74,-9.39,0.71,10.54
6.8046581745147705,6.92,-4.88,-4.19,9.44
6.817448139190674,7.89,0.59,-1.58,8.06
6.827913045883179,9.24,4.54,1.93,10.47
6.834946155548096,9.2,4.87,-3.89,11.11
6.84774112701416,7.33,2.71,-2.33,8.15
6.855279207229614,2.52,-0.34,0.7,2.63
6.867314100265503,0.4,-0.23,-0.13,0.47
6.8776490688323975,-0.42,0.78,0.33,0.94
6.8849310874938965,-0.25,0.87,-1.16,1.47
6.897747278213501,1.08,0.58,-1.72,2.11
6.904811143875122,2.06,0.38,-1.09,2.36
6.91740608215332,1.53,0.18,-1.34,2.04
6.928063154220581,0.59,0.07,-1.27,1.4
6.93494725227356,0.21,0.08,-0.89,0.91
6.947944164276123,0.62,0.0,-0.61,0.86
6.955284118652344,1.53,0.11,-0.18,1.54
6.967289209365845,1.56,0.39,0.28,1.63
6.977672100067139,0.75,0.49,0.06,0.89
6.9848339557647705,-0.08,0.26,0.26,0.37
6.997891187667847,-0.83,-0.15,0.03,0.84
7.004914999008179,-1.29,-0.31,-0.63,1.46
7.017349004745483,-1.39,-0.22,-0.91,1.67
7.028095960617065,-1.09,0.01,-0.77,1.33
7.035071134567261,-0.53,0.06,-0.7,0.88
7.047936201095581,-0.35,-0.09,-0.57,0.67
7.055351972579956,-0.51,-0.28,-0.16,0.6
7.067430257797241,-0.93,-0.24,0.21,0.98
7.077743291854858,-1.34,0.06,0.45,1.41
7.085031270980835,-1.86,0.07,0.6,1.95
7.097984075546265,-2.28,-0.16,0.55,2.35
7.104964971542358,-2.47,-0.19,0.68,2.56
7.117425203323364,-2.61,0.1,1.13,2.84
7.128350019454956,-2.65,0.35,1.17,2.91
7.135174989700317,-2.59,0.24,1.4,2.95
7.1481029987335205,-2.31,-0.17,1.06,2.54
7.1555821895599365,-1.77,-0.47,0.49,1.89
7.167628049850464,-1.29,-0.17,1.09,1.69
7.177994966506958,-0.84,0.17,0.81,1.17
7.184983015060425,-0.37,0.42,0.77,0.95
7.198115110397339,-0.49,0.52,1.05,1.27
7.204934120178223,-0.31,0.06,-0.09,0.32
7.217539072036743,0.37,-0.68,-0.99,1.25
7.228187084197998,1.57,-0.74,-0.99,1.99
7.235162019729614,2.4,0.12,-0.63,2.48
7.248090982437134,2.33,1.07,-1.89,3.18
7.255436182022095,2.56,1.32,-1.56,3.27
7.267438173294067,1.95,1.68,-0.99,2.75
7.277871131896973,1.28,3.06,-1.53,3.65
7.28495717048645,1.27,4.89,-0.2,5.05
7.298175096511841,0.71,6.03,0.57,6.09
7.304936170578003,-0.01,6.46,1.36,6.6
7.317688226699829,-0.9,6.7,2.36,7.16
7.328224182128906,-1.88,7.38,2.77,8.1
7.335209131240845,-3.0,7.7,2.48,8.62
7.348212003707886,-3.99,8.03,1.73,9.13
7.355488061904907,-4.6,8.69,1.85,10.0
7.367732286453247,-5.51,9.33,3.13,11.27
7.3781421184539795,-7.51,8.57,3.57,11.94
7.385104179382324,-10.06,6.15,3.31,12.24
7.39829421043396,-11.63,3.41,0.54,12.13
7.405030965805054,-12.68,1.67,-1.85,12.92
7.417941093444824,-12.69,1.54,-2.55,13.03
7.428378105163574,-9.59,4.13,-1.48,10.54
7.43517804145813,-3.14,7.33,-0.14,7.97
7.448301076889038,-1.38,7.63,-1.11,7.83
7.4556190967559814,-0.34,8.34,-2.26,8.64
7.467782258987427,1.78,9.5,-1.06,9.72
7.4780919551849365,3.46,10.77,-0.12,11.31
7.485244035720825,3.49,12.29,-0.56,12.78
7.497320175170898,2.27,12.99,-0.79,13.21
7.505118131637573,-0.85,11.63,-0.49,11.67
7.517719030380249,-2.56,10.04,-0.28,10.36
7.528311014175415,-2.8,9.39,-0.52,9.81
7.535213232040405,-2.65,8.77,-0.24,9.16
7.5483081340789795,-2.39,8.07,0.37,8.42
7.555776119232178,-2.08,7.4,1.22,7.78
7.567885160446167,-1.66,6.71,2.57,7.37
7.577834129333496,-1.84,5.84,3.21,6.91
7.5851781368255615,-2.25,4.74,3.42,6.26
7.598384141921997,-2.58,3.6,3.22,5.47
7.60510516166687,-3.11,2.35,3.63,5.32
7.617700099945068,-3.84,1.17,4.49,6.02
7.628367185592651,-4.37,0.34,4.51,6.28
7.63527512550354,-4.24,-0.01,3.8,5.69
7.648406267166138,-3.62,0.39,3.19,4.84
7.655767202377319,-3.07,-0.02,2.72,4.1
7.667757272720337,-3.17,-3.37,2.68,5.34
7.678116083145142,-3.18,-5.95,2.4,7.16
7.685257196426392,-2.78,-6.13,1.04,6.81
7.69844126701355,-1.99,-5.82,0.65,6.18
7.7052531242370605,-1.2,-6.27,1.27,6.5
7.717815160751343,-1.02,-7.37,1.9,7.67
7.728515148162842,-1.22,-8.42,2.12,8.76
7.735473155975342,-1.41,-8.59,2.1,8.95
7.748430967330933,-1.64,-8.55,2.64,9.09
7.755849123001099,-2.05,-8.77,3.14,9.53
7.767965078353882,-2.39,-9.11,3.3,9.97
7.778151273727417,-2.32,-9.24,3.76,10.24
7.785335302352905,-1.77,-8.88,4.07,9.92
7.7986180782318115,-0.83,-8.57,3.99,9.48
7.805237054824829,0.27,-8.21,4.13,9.19
7.817944288253784,1.18,-7.55,4.2,8.71
7.828630208969116,2.04,-7.23,3.79,8.41
7.835447072982788,2.44,-7.1,3.57,8.31
7.848374128341675,2.93,-6.43,3.18,7.74
7.855957269668579,3.76,-5.59,2.48,7.17
7.868019104003906,4.59,-5.49,1.73,7.36
7.878286123275757,5.46,-5.85,0.99,8.06
7.885407209396362,6.48,-6.02,0.63,8.86
7.89836311340332,7.33,-5.87,0.97,9.44
7.905287981033325,7.87,-5.56,0.7,9.66
7.918122053146362,8.34,-5.04,0.13,9.74
7.928568124771118,8.73,-4.38,0.65,9.78
7.9354212284088135,8.91,-3.75,0.75,9.69
7.948353052139282,9.19,-3.64,0.27,9.88
7.955854177474976,9.61,-4.03,0.45,10.43
7.968078136444092,9.76,-4.78,0.55,10.88
7.9783241748809814,9.44,-5.61,-0.13,10.98
7.985384225845337,7.29,-4.7,-15.53,17.78
7.997121095657349,5.96,-3.33,-31.6,32.32
8.005621194839478,6.93,7.3,-29.49,31.16
8.017702102661133,17.3,41.89,33.12,56.13
8.02886414527893,16.79,27.85,38.29,50.23
8.035776138305664,1.99,2.01,-5.67,6.33
8.048725128173828,-3.0,-4.12,-6.15,7.98
8.055798292160034,-5.81,-6.42,-3.53,9.35
8.07016396522522,-7.73,-6.89,-2.42,10.63
8.078433275222778,-7.87,-7.8,3.31,11.56
8.085493087768555,-0.29,-8.37,1.54,8.51
8.098188161849976,3.96,-5.65,-4.93,8.47
8.105501174926758,4.52,0.38,-2.73,5.29
8.118271112442017,5.99,6.41,0.12,8.77
8.128956079483032,3.43,9.49,-0.97,10.13
8.135796070098877,0.06,4.54,0.29,4.54
8.148219108581543,-0.8,-1.14,0.41,1.45
8.156134128570557,-0.13,-1.06,-1.06,1.5
8.168239116668701,0.97,-0.12,-2.56,2.74
8.178415060043335,1.76,0.02,-2.04,2.69
8.185527086257935,2.04,0.18,-1.82,2.73
8.198189973831177,1.69,-0.08,-1.33,2.15
8.20545220375061,1.17,-0.58,-1.44,1.94
8.21819519996643,0.26,-0.58,-0.86,1.06
8.22878909111023,-0.35,-0.34,-0.06,0.49
8.235609292984009,-0.08,-0.38,-0.19,0.43
8.248191118240356,1.16,0.17,0.56,1.29
8.256147146224976,1.96,0.79,1.1,2.38
8.268290281295776,1.75,0.59,0.65,1.95
8.278455018997192,1.66,0.18,0.11,1.67
8.285601139068604,1.55,-0.09,0.26,1.57
8.298246145248413,1.79,-0.05,-0.23,1.8
8.305560111999512,1.94,0.26,-0.48,2.01
8.31821322441101,1.44,0.72,-0.03,1.61
8.328758001327515,0.7,0.92,-0.62,1.31
8.335877180099487,0.48,0.93,-1.24,1.62
8.34841799736023,0.46,0.57,-0.89,1.15
8.356038093566895,0.57,-0.36,-1.11,1.29
8.368267297744751,0.78,-0.91,-1.65,2.03
8.378518104553223,0.72,-0.4,-1.15,1.41
8.3856360912323,0.51,0.39,-1.07,1.24
8.39847707748413,0.41,0.4,-0.68,0.88
8.405676126480103,0.08,0.58,-0.34,0.67
8.41845417022705,-0.27,0.82,0.13,0.87
8.428999185562134,-0.51,0.94,-0.05,1.07
8.435824155807495,-0.82,0.91,0.11,1.22
8.448537111282349,-1.24,0.75,0.25,1.47
8.456120252609253,-1.1,0.44,-0.1,1.18
8.468432188034058,-0.77,-0.17,-0.03,0.78
8.478600263595581,-0.94,-0.66,0.17,1.16
8.485758066177368,-1.77,-0.54,0.5,1.91
8.498378038406372,-2.88,-0.01,0.6,2.94
8.505721092224121,-3.58,0.4,0.37,3.62
8.51834511756897,-3.39,0.74,1.27,3.69
8.529005289077759,-2.85,0.05,1.34,3.14
8.535846948623657,-1.85,-1.56,0.83,2.55
8.548429250717163,-1.01,-2.64,0.99,2.99
8.556150197982788,-0.44,-2.87,0.97,3.06
8.56848406791687,-0.55,-2.13,0.76,2.32
8.578835248947144,-0.92,-0.95,0.86,1.57
8.585901975631714,-1.81,0.33,0.93,2.06
8.598555088043213,-2.8,1.37,1.0,3.27
8.605767011642456,-3.34,1.21,1.03,3.69
8.618519067764282,-2.53,-0.25,0.61,2.61
8.62897801399231,-1.12,-1.44,1.13,2.14
8.6359121799469,0.08,-1.63,1.29,2.08
8.648580074310303,0.66,-0.73,1.9,2.13
8.656198263168335,-0.15,0.29,1.21,1.25
8.668413162231445,-0.83,0.83,0.21,1.19
8.678689241409302,-0.29,0.81,-0.14,0.87
8.685851097106934,1.06,0.35,-0.47,1.21
8.698707103729248,2.32,-0.07,-0.39,2.35
8.70588207244873,3.09,0.01,-1.28,3.34
8.718520164489746,3.45,1.06,-1.48,3.9
8.729161977767944,3.3,2.18,-2.66,4.76
8.735900163650513,3.43,2.98,-2.61,5.23
8.748697996139526,3.72,3.75,-2.26,5.74
8.756389141082764,4.09,4.59,-2.58,6.66
8.768449068069458,4.39,5.96,-2.49,7.8
8.778702020645142,3.88,7.47,-3.24,9.01
8.785979986190796,2.77,9.41,-2.07,10.02
8.798218965530396,0.93,11.3,-0.55,11.35
8.8057382106781,-1.76,12.57,1.1,12.74
8.820900201797485,-4.88,13.3,3.5,14.59
8.826411962509155,-8.05,12.2,4.0,15.15
8.835287094116211,-10.39,9.53,2.05,14.24
8.847745180130005,-11.0,6.34,-2.79,12.99
8.85538125038147,-9.18,2.21,-7.33,11.95
8.868103265762329,-5.27,1.12,-6.87,8.73
8.876532077789307,-2.09,2.32,-6.53,7.23
8.88539719581604,-0.3,1.99,-5.54,5.89
8.897683143615723,1.27,0.81,-1.75,2.3
8.905264139175415,2.78,0.82,-0.85,3.02
8.918129205703735,4.0,2.1,-1.57,4.78
8.926505088806152,4.13,4.01,0.45,5.77
8.93539309501648,0.85,5.57,1.02,5.72
8.947571992874146,-3.78,5.58,-1.29,6.86
8.955337285995483,-6.03,5.31,0.12,8.03
8.968001127243042,-6.26,4.74,0.94,7.9
8.976656198501587,-5.47,4.66,-0.18,7.18
8.98531699180603,-4.65,5.27,-1.11,7.11
8.997682094573975,-3.96,5.96,-0.72,7.19
9.005364179611206,-3.88,6.46,-0.31,7.54
9.017937183380127,-4.57,6.54,0.25,7.98
9.026625156402588,-5.68,5.86,0.79,8.19
9.035360097885132,-6.61,4.55,1.22,8.11
9.047734022140503,-7.8,3.01,1.7,8.53
9.055431127548218,-8.94,1.82,1.96,9.33
9.068058252334595,-9.61,1.18,2.25,9.94
9.076678037643433,-9.72,0.68,3.05,10.2
9.08547329902649,-9.56,0.13,3.48,10.17
9.097707033157349,-9.62,-0.54,3.81,10.36
9.105509042739868,-9.68,-1.35,4.26,10.66
9.118208169937134,-9.55,-2.22,4.38,10.73
9.126718282699585,-9.42,-2.99,4.06,10.68
9.135544061660767,-9.25,-3.62,3.87,10.66
9.147876024246216,-9.0,-4.24,4.08,10.75
9.155541181564331,-8.69,-4.73,4.6,10.91
9.168129205703735,-8.33,-5.02,5.05,10.95
9.176744222640991,-7.8,-5.1,5.19,10.66
9.185506105422974,-7.11,-4.94,5.23,10.11
9.197867155075073,-6.64,-4.25,5.02,9.34
9.205476999282837,-6.17,-3.62,5.02,8.73
9.218136072158813,-5.47,-3.38,5.06,8.18
9.226707220077515,-5.0,-3.37,5.17,7.94
9.235562086105347,-4.82,-3.44,5.33,7.96
9.247841119766235,-4.8,-3.46,5.37,7.99
9.255475282669067,-4.68,-3.38,5.25,7.8
9.268334150314331,-4.4,-3.28,5.21,7.56
9.276739120483398,-4.05,-3.24,5.13,7.29
9.285625219345093,-3.58,-3.09,4.8,6.73
9.29785418510437,-2.86,-2.87,4.45,6.01
9.305687189102173,-1.99,-2.69,4.15,5.33
9.318315267562866,-1.11,-2.55,3.65,4.58
9.3266921043396,-0.15,-2.35,2.95,3.77
9.335530996322632,0.89,-1.95,2.35,3.18
9.34797716140747,1.96,-1.21,1.76,2.89
9.355581045150757,3.14,-0.41,1.44,3.47
9.368329286575317,4.36,0.54,0.67,4.44
9.376711130142212,5.33,1.68,-0.68,5.62
9.385710000991821,6.07,2.8,-1.86,6.93
9.397943258285522,7.29,4.17,-2.74,8.83
9.405555009841919,8.87,5.5,-2.07,10.64
9.418552160263062,10.24,6.54,-1.1,12.19
9.426774263381958,10.76,7.12,-1.45,12.98
9.435708284378052,10.87,6.88,-2.57,13.11
9.448020219802856,11.52,6.26,-4.5,13.86
9.455778121948242,12.69,5.85,-5.22,14.91
9.468393087387085,13.65,5.58,-5.03,15.58
9.47692608833313,13.84,5.56,-7.15,16.54
9.48581314086914,14.64,5.59,-6.02,16.78
9.498028993606567,14.6,6.41,-6.36,17.16
9.507294178009033,6.41,13.21,6.01,15.86
9.51877212524414,-3.51,17.62,16.09,24.11
9.526806116104126,-3.61,15.63,-4.78,16.73
9.535797119140625,-4.92,9.03,-4.24,11.12
9.54785704612732,-4.92,-0.8,8.03,9.45
9.555775165557861,-2.98,-6.18,2.53,7.31
9.568510293960571,1.65,-7.31,-6.26,9.76
9.577059984207153,7.47,-5.48,-1.43,9.37
9.585798978805542,9.59,1.26,1.82,9.84
9.598113298416138,10.15,7.3,0.56,12.51
9.605873107910156,9.26,5.31,-2.45,10.95
9.618803262710571,4.59,-1.45,-4.2,6.38
9.627117156982422,1.89,-3.31,-1.74,4.18
9.635832071304321,-0.52,-0.55,-0.25,0.79
9.648231267929077,-2.22,1.88,-1.2,3.14
9.655855178833008,-2.73,1.37,-1.18,3.27
9.668586015701294,-1.01,0.45,-2.47,2.7
9.67696213722229,1.88,0.21,-2.02,2.76
9.685847997665405,3.36,0.04,-0.43,3.38
9.698086023330688,2.43,0.21,-1.71,2.97
9.705816984176636,0.38,-0.45,-1.66,1.76
9.71884799003601,-0.29,-0.15,-0.25,0.41
9.727079153060913,-1.09,0.27,0.33,1.17
9.735806226730347,-0.9,0.39,0.42,1.06
9.748212099075317,0.08,0.24,0.18,0.31
9.755758047103882,0.39,0.05,0.41,0.56
9.76849102973938,-0.02,0.32,-0.31,0.44
9.77702021598816,-0.58,0.43,-0.64,0.96
9.78596806526184,-0.8,0.14,-0.59,1.0
9.798166990280151,-0.69,-0.1,-0.49,0.85
9.805886030197144,-0.85,-0.01,-0.06,0.85
9.818573236465454,-1.22,0.09,0.01,1.22
9.82713007926941,-1.39,0.03,0.25,1.41
9.835952997207642,-1.66,0.31,0.86,1.89
9.848199129104614,-1.86,0.67,0.91,2.17
9.855938196182251,-1.99,0.49,0.9,2.23
9.86869502067566,-1.95,0.01,1.09,2.23
9.877102136611938,-1.74,0.42,1.1,2.1
9.886031150817871,-1.71,0.98,1.63,2.55
9.898316144943237,-2.09,1.14,1.84,3.0
9.90605616569519,-2.7,1.17,1.69,3.39
9.9186851978302,-2.74,1.07,1.77,3.43
9.927150964736938,-2.27,0.96,1.77,3.03
9.93604826927185,-2.72,1.28,1.76,3.48
9.948282957077026,-3.32,1.38,1.46,3.88
9.956058263778687,-3.12,1.28,1.54,3.7
9.968533277511597,-2.51,0.91,1.51,3.06
9.977100133895874,-1.4,0.23,1.6,2.13
9.986041069030762,-0.62,-0.35,2.52,2.61
9.99820613861084,-0.24,-0.85,2.16,2.33
10.005983114242554,-0.04,-1.4,2.96,3.27
10.018940210342407,0.98,-2.23,2.24,3.3
10.02716326713562,1.52,-2.47,2.04,3.54
10.035978078842163,1.61,-2.63,0.34,3.1
10.048286199569702,1.83,-3.35,-1.32,4.03
10.05607295036316,2.05,-3.97,-2.58,5.15
10.068619966506958,2.87,-4.21,-2.88,5.85
10.077088117599487,3.99,-3.87,-2.38,6.04
10.086154222488403,5.24,-2.25,-2.54,6.24
10.098526239395142,6.17,0.24,-1.62,6.38
10.106065034866333,4.87,2.7,-2.53,6.11
10.118743181228638,2.88,3.81,-2.35,5.32
10.12686800956726,2.59,4.42,-2.5,5.7
10.136274099349976,2.49,5.72,-2.53,6.73
10.148344278335571,1.89,7.07,-3.73,8.21
10.156200170516968,1.47,8.33,-3.94,9.33
10.168853998184204,0.84,9.55,-4.09,10.42
10.177021265029907,-0.13,10.89,-3.7,11.5
10.186853170394897,-1.18,12.58,-1.5,12.72
10.199013948440552,-2.18,14.19,0.37,14.36
10.206794023513794,-3.7,14.91,3.25,15.7
10.21867823600769,-5.81,13.9,5.14,15.91
10.227053165435791,-8.04,10.52,3.44,13.68
10.236148118972778,-9.31,6.68,1.58,11.56
10.248382091522217,-8.99,3.22,-2.34,9.83
10.256304025650024,-8.42,2.09,-5.2,10.11
10.268893003463745,-6.06,3.53,-5.35,8.82
10.276782274246216,-2.3,4.55,-6.58,8.32
10.286325216293335,-1.34,2.54,-2.22,3.62
10.29854416847229,-1.92,-0.48,-1.05,2.24
10.306262254714966,-1.27,-0.46,-1.35,1.9
10.319041967391968,-0.05,4.98,-1.02,5.08
10.326938152313232,-0.99,7.84,-1.23,7.99
10.336332082748413,-2.14,6.73,0.68,7.09
10.348485231399536,-4.18,5.47,-0.32,6.89
10.356271982192993,-5.89,5.62,-1.35,8.25
10.36892819404602,-6.61,6.18,-1.22,9.13
10.376909971237183,-7.01,6.35,-0.91,9.5
10.386255979537964,-6.98,6.25,0.22,9.37
10.39850926399231,-6.2,6.36,1.31,8.97
10.406260251998901,-4.89,6.88,2.07,8.69
10.418942213058472,-3.09,7.44,1.84,8.26
10.427057027816772,-1.64,7.9,0.93,8.12
10.43637204170227,-0.88,7.85,0.73,7.93
10.448516130447388,-0.39,7.12,1.04,7.2
10.456307172775269,-0.43,6.23,1.8,6.49
10.46908712387085,-1.38,5.26,2.78,6.1
10.47707724571228,-2.64,4.24,3.1,5.87
10.486457109451294,-3.17,3.13,4.17,6.1
10.498651266098022,-3.51,2.58,4.62,6.34
10.506359100341797,-3.4,2.27,4.07,5.76
10.5189790725708,-2.7,2.1,3.91,5.19
10.52715516090393,-2.19,2.03,4.74,5.6
10.536400079727173,-1.98,2.07,4.31,5.17
10.548596143722534,-2.05,1.99,3.54,4.54
10.556417226791382,-2.18,1.63,3.36,4.32
10.568948030471802,-1.78,1.7,3.51,4.28
10.57717514038086,-1.25,2.59,3.49,4.52
10.586405992507935,-1.58,-0.19,3.4,3.75
10.598720073699951,-1.56,-3.9,3.22,5.29
10.606495141983032,-1.08,-5.01,3.19,6.03
10.619078159332275,-0.67,-4.62,2.92,5.5
10.627220153808594,-0.83,-4.64,3.07,5.62
10.636433124542236,-1.64,-5.31,3.37,6.49
10.648746252059937,-2.48,-6.47,3.56,7.79
10.656466245651245,-2.97,-7.04,3.74,8.5
10.669130086898804,-2.82,-6.43,4.04,8.1
10.677288293838501,-2.27,-6.08,4.15,7.7
10.686419248580933,-1.95,-7.15,4.66,8.75
10.698667287826538,-1.36,-8.04,4.76,9.44
10.706541299819946,-0.58,-8.38,4.46,9.51
10.71908712387085,0.07,-8.5,4.61,9.66
10.727166175842285,0.88,-7.97,4.49,9.18
10.736561059951782,1.51,-7.45,4.06,8.61
10.748757123947144,1.97,-7.32,3.94,8.54
10.756458044052124,2.23,-7.59,3.67,8.72
10.76908016204834,2.64,-7.21,3.18,8.31
10.777229070663452,3.55,-6.94,2.48,8.18
10.786461114883423,4.75,-7.39,2.34,9.09
10.798807144165039,5.53,-7.76,2.55,9.86
10.806524991989136,6.59,-7.65,2.42,10.38
10.819072961807251,7.31,-7.49,1.75,10.61
10.82736611366272,7.84,-6.87,0.57,10.43
10.836508989334106,8.72,-5.85,-0.25,10.5
10.848885297775269,9.47,-4.87,-1.1,10.7
10.856521129608154,10.05,-3.63,-1.38,10.77
10.869202136993408,9.67,-2.38,-1.96,10.14
10.877430200576782,9.23,-1.76,-2.25,9.66
10.88657021522522,9.27,-1.69,-2.0,9.63
10.89883303642273,9.06,-1.84,-1.84,9.42
10.906583070755005,8.51,-1.92,-1.33,8.82
10.919063091278076,7.27,-2.11,-0.76,7.6
10.927404165267944,6.27,-2.42,-0.39,6.73
10.936634302139282,4.93,-2.6,-6.87,8.84
10.948820114135742,1.47,-1.96,-16.23,16.41
10.959241151809692,3.04,11.99,-15.99,20.21
10.969261169433594,9.71,48.98,7.14,50.44
10.9774911403656,14.99,24.89,19.75,35.13
10.986772298812866,4.49,-4.43,10.18,11.97
10.998751163482666,-3.97,-8.62,-4.22,10.38
11.006606101989746,-5.49,-8.93,-10.61,14.91
11.019208192825317,-6.33,-11.46,-4.35,13.79
11.027522087097168,-2.35,-11.39,2.14,11.82
11.03668212890625,5.63,-4.72,2.22,7.67
11.048866987228394,6.98,3.24,0.48,7.71
11.056617975234985,6.4,11.03,-0.8,12.77
11.069193124771118,3.99,7.7,-2.56,9.04
11.07755708694458,3.13,-1.17,-0.37,3.36
11.086590051651001,1.35,-3.56,-1.55,4.11
11.09898829460144,-0.03,-0.19,-1.66,1.67
11.10869312286377,0.18,2.96,-1.01,3.13
11.119440078735352,0.65,1.68,-1.64,2.43
11.127587080001831,1.53,-0.25,-1.07,1.88
11.136694192886353,1.89,-0.62,-0.83,2.15
11.14889907836914,1.41,-0.37,-1.6,2.16
11.15881896018982,1.07,0.05,-1.31,1.69
11.16934609413147,0.86,-0.1,-0.36,0.93
11.177691221237183,0.48,-0.04,0.28,0.55
11.186805963516235,0.28,0.06,0.09,0.3
11.19906497001648,0.4,-0.17,0.27,0.51
11.208909273147583,0.77,-0.29,-0.05,0.82
11.219382047653198,0.92,-0.06,-0.31,0.97
11.227727174758911,1.03,0.46,-0.36,1.18
11.236823081970215,0.96,0.99,-0.14,1.38
11.248861074447632,0.96,0.95,-0.61,1.48
11.258878946304321,0.93,0.46,-0.2,1.05
11.26936411857605,0.42,0.39,0.16,0.59
11.277703046798706,-0.07,0.12,-0.87,0.88
11.286843061447144,0.04,-0.02,-0.76,0.76
11.299089193344116,0.54,0.01,-0.37,0.65
11.308861017227173,0.84,0.0,-0.13,0.85
11.319360971450806,0.79,0.05,-0.37,0.87
11.327749013900757,0.5,-0.11,-0.41,0.65
11.336795091629028,0.38,0.28,-0.5,0.68
11.349091291427612,-0.06,0.51,-0.15,0.53
11.358934164047241,-0.5,0.34,-0.49,0.77
11.369426012039185,-0.83,0.09,-0.52,0.98
11.377751111984253,-0.8,0.01,-0.16,0.81
11.386734247207642,-0.8,-0.22,-0.02,0.82
11.399150133132935,-1.04,0.03,0.67,1.23
11.408990144729614,-1.54,0.49,1.09,1.94
11.419475078582764,-2.3,0.75,1.05,2.63
11.427704095840454,-2.77,0.87,0.74,2.99
11.436862230300903,-3.05,0.6,0.98,3.25
11.449076175689697,-2.86,-0.27,0.71,2.95
11.45883297920227,-2.5,-1.07,0.52,2.76
11.469504117965698,-2.51,-1.09,0.85,2.86
11.477740049362183,-2.87,-0.96,0.72,3.11
11.486883163452148,-3.67,-1.57,0.14,3.99
11.499406099319458,-3.92,-2.7,-0.03,4.75
11.509056091308594,-3.28,-3.16,-0.42,4.57
11.519405126571655,-1.58,-2.82,-0.82,3.33
11.527729272842407,1.54,-1.45,1.44,2.55
11.536932229995728,2.71,-0.02,2.59,3.74
11.549274206161499,1.76,0.22,1.27,2.18
11.558978080749512,-0.04,-0.04,1.7,1.7
11.569494009017944,-2.96,0.37,1.34,3.27
11.577755212783813,-5.29,1.49,1.11,5.6
11.587196111679077,-5.96,2.47,1.16,6.55
11.599233150482178,-4.62,2.42,0.73,5.26
11.609086275100708,-1.75,1.37,0.84,2.37
11.619710206985474,0.69,0.77,1.44,1.77
11.627954244613647,2.24,0.66,1.65,2.85
11.637078046798706,3.05,0.67,1.9,3.65
11.64928126335144,2.79,0.24,1.36,3.11
11.659191131591797,1.95,-0.71,0.99,2.29
11.669604063034058,1.92,-2.12,-0.27,2.87
11.677926301956177,1.93,-3.37,-1.2,4.06
11.687085151672363,2.44,-3.15,-1.66,4.31
11.69933009147644,3.22,-1.48,-2.83,4.53
11.709064245223999,3.73,0.49,-3.64,5.23
11.719576120376587,4.18,2.11,-3.68,5.95
11.727825164794922,4.66,2.95,-3.71,6.64
11.736931085586548,5.25,3.82,-3.06,7.17
11.749233961105347,5.34,5.49,-3.01,8.22
11.759255170822144,4.61,7.92,-2.56,9.51
11.769925117492676,3.25,10.23,-2.43,11.0
11.77851128578186,1.77,12.69,-0.8,12.83
11.787673234939575,-0.59,15.37,1.61,15.46
11.800180196762085,-3.98,17.34,3.72,18.17
11.809839963912964,-7.67,17.22,5.61,19.66
11.81964898109436,-10.85,13.05,3.48,17.32
11.82802128791809,-12.41,7.83,0.37,14.67
11.837072134017944,-10.84,2.4,-5.81,12.53
11.849497079849243,-6.76,0.94,-6.66,9.53
11.859236001968384,-3.5,2.81,-6.58,7.96
11.869724035263062,-1.64,3.55,-6.54,7.61
11.877954244613647,-0.51,2.53,-2.16,3.36
11.887181997299194,0.45,1.82,-0.41,1.91
11.899548292160034,1.26,4.05,-3.69,5.62
11.909356117248535,1.45,7.36,-2.11,7.79
11.920401096343994,-0.37,9.62,-0.43,9.63
11.928714990615845,-3.46,9.5,-2.43,10.39
11.937896013259888,-5.06,9.79,-1.0,11.06
11.950124025344849,-5.81,10.37,0.3,11.89
11.959577083587646,-6.44,10.75,0.1,12.53
11.969882249832153,-6.36,11.23,-0.03,12.9
11.980306148529053,-5.73,10.89,-0.01,12.3
11.987803220748901,-5.25,9.91,-0.16,11.21
12.000750064849854,-4.58,9.12,0.54,10.21
12.009737253189087,-4.09,8.31,0.45,9.27
12.020363092422485,-4.47,7.36,0.61,8.63
12.030739068984985,-5.33,6.24,1.46,8.33
12.03793215751648,-6.12,5.11,2.16,8.26
12.050515174865723,-6.8,3.78,2.47,8.16
12.060246229171753,-7.28,1.98,3.1,8.15
12.070363283157349,-7.47,0.1,3.32,8.17
12.080404043197632,-7.77,-1.56,3.26,8.56
12.087743997573853,-7.99,-2.84,3.45,9.15
12.100524187088013,-8.11,-3.65,3.97,9.73
12.109891176223755,-8.28,-4.11,4.27,10.18
12.120544195175171,-8.52,-4.43,4.23,10.49
12.130779027938843,-8.39,-4.83,3.88,10.42
12.137919187545776,-7.87,-5.36,4.01,10.33
12.150528192520142,-7.04,-5.85,4.22,10.07
12.160210132598877,-6.17,-6.28,4.44,9.86
12.170390129089355,-5.49,-6.82,4.54,9.86
12.180407285690308,-5.12,-7.29,4.38,9.92
12.18787407875061,-4.94,-7.84,4.09,10.12
12.200611114501953,-4.87,-8.44,4.01,10.53
12.210012197494507,-4.56,-8.97,3.81,10.75
12.220529079437256,-4.09,-9.33,3.55,10.78
12.230775117874146,-3.74,-9.48,3.59,10.8
12.237930059432983,-3.43,-9.5,3.69,10.75
12.250862121582031,-3.91,-8.74,3.97,10.36
12.260617017745972,-4.1,-7.45,4.11,9.44
12.270896196365356,-3.66,-6.58,3.68,8.38
12.280631065368652,-2.69,-6.44,3.24,7.69
12.288086175918579,-1.85,-6.87,2.92,7.69
12.300729990005493,-0.99,-7.21,2.08,7.56
12.30995512008667,0.02,-7.41,1.32,7.52
12.32056713104248,0.89,-7.27,0.96,7.38
12.330897092819214,1.93,-6.58,0.84,6.9
12.338062047958374,3.67,-5.21,0.12,6.37
12.350921154022217,5.36,-3.66,-0.65,6.52
12.360457181930542,6.45,-2.45,-0.87,6.95
12.370604276657104,6.99,-1.69,-1.15,7.28
12.380635976791382,8.0,-1.14,-1.98,8.31
12.387953996658325,8.67,-0.72,-2.42,9.03
12.400768995285034,8.58,-0.2,-2.21,8.86
12.410032987594604,7.33,0.41,-2.46,7.74
12.420645952224731,6.51,0.75,-2.99,7.2
12.4309241771698,6.56,0.6,-4.21,7.81
12.438048124313354,6.86,0.11,-5.57,8.83
12.450947999954224,7.22,-0.25,-6.28,9.57
12.4604012966156,7.55,-0.63,-6.77,10.16
12.4705970287323,7.8,-1.05,-7.31,10.74
12.480555295944214,8.42,-1.25,-7.28,11.2
12.48807406425476,9.28,-1.68,-7.19,11.85
12.500851154327393,9.14,-1.82,-6.71,11.48
12.509956121444702,4.09,1.25,-6.27,7.58
12.52077603340149,-0.27,8.73,-7.25,11.35
12.529145956039429,1.53,30.84,-10.75,32.69
12.537480115890503,2.97,50.5,3.67,50.72
12.551038980484009,-1.84,19.7,14.42,24.48
12.56035304069519,-4.37,-2.26,4.96,6.98
12.570642232894897,-4.05,-7.51,-6.85,10.94
12.580562114715576,-3.18,-10.93,-4.01,12.06
12.58816123008728,-1.67,-12.73,-0.02,12.83
12.600977182388306,0.03,-10.72,2.74,11.06
12.609934091567993,2.2,-4.23,0.64,4.81
12.620784997940063,2.36,2.88,-0.08,3.72
12.63113808631897,1.09,4.66,-0.17,4.78
12.638345956802368,2.59,4.29,-2.04,5.41
12.650896072387695,5.48,2.77,-1.21,6.25
12.660149097442627,5.05,0.35,0.55,5.09
12.670737981796265,3.56,0.12,-0.29,3.57
12.680781126022339,1.86,0.35,-0.43,1.94
12.688125133514404,-0.19,0.25,-0.42,0.52
12.700953245162964,-1.9,-0.03,-0.47,1.95
12.70967411994934,-3.18,-0.25,-0.53,3.23
12.720827102661133,-2.59,-0.21,-0.36,2.62
12.731107950210571,-0.6,-0.06,-0.53,0.8
12.738219976425171,1.13,0.05,-0.8,1.38
12.750917196273804,2.41,0.05,-0.62,2.48
12.760260105133057,2.71,0.08,-1.28,2.99
12.770854234695435,1.92,0.17,-0.51,1.99
12.78080415725708,0.58,0.07,-0.41,0.71
12.788192987442017,-0.34,0.02,-0.35,0.48
12.801058053970337,-0.42,-0.07,-0.36,0.55
12.809777021408081,-0.16,-0.07,-0.27,0.32
12.820882081985474,-0.27,0.23,-0.14,0.38
12.831268072128296,-0.12,0.41,-0.47,0.63
12.838320970535278,-0.28,0.23,-0.48,0.6
12.850999116897583,-0.94,0.16,-0.49,1.07
12.859992265701294,-0.79,0.14,-0.91,1.21
12.870922088623047,-0.35,-0.14,-0.35,0.51
12.880905151367188,0.05,-0.22,-0.04,0.22
12.888299226760864,0.42,0.02,0.0,0.42
12.901117086410522,0.36,0.14,0.09,0.39
12.90959095954895,0.39,0.19,0.14,0.45
12.920951128005981,0.59,0.15,0.21,0.64
12.931185007095337,0.62,-0.16,-0.2,0.67
12.938318967819214,0.52,-0.35,-0.15,0.64
12.951064109802246,0.13,-0.18,0.07,0.23
12.959947109222412,-0.73,-0.1,-0.15,0.75
12.9708092212677,-1.69,-0.14,0.02,1.69
12.980870008468628,-2.32,-0.12,0.17,2.32
12.98877501487732,-2.92,-0.11,0.37,2.94
13.001265287399292,-2.51,-0.16,0.24,2.52
13.009529113769531,-2.01,-0.36,0.33,2.06
13.021116018295288,-1.3,-0.54,0.11,1.41
13.03131914138794,-0.6,-0.25,0.39,0.75
13.038777112960815,-0.65,-0.09,0.02,0.65
13.051162004470825,-0.03,-0.24,-0.47,0.52
13.05994200706482,0.69,-0.47,-0.6,1.02
13.070972204208374,1.22,-0.6,-0.73,1.54
13.08112120628357,1.4,-0.05,-0.96,1.69
13.088717222213745,0.84,0.49,-0.93,1.34
13.101227045059204,0.74,0.47,-0.12,0.88
13.109507083892822,0.84,0.35,0.45,1.01
13.12102723121643,1.12,0.08,0.64,1.29
13.131320238113403,1.73,0.12,0.72,1.87
13.138869047164917,2.05,0.35,0.59,2.16
13.15116810798645,2.06,0.18,0.73,2.19
13.159773111343384,1.83,-0.09,0.85,2.01
13.170939207077026,1.3,-0.26,0.59,1.45
13.18107295036316,0.66,-0.39,0.55,0.94
13.18877100944519,-0.55,-0.21,0.85,1.03
13.20116925239563,-2.12,0.53,-0.44,2.22
13.209155082702637,-2.63,0.99,-0.83,2.93
13.22113299369812,-2.08,0.24,-0.03,2.09
13.231311082839966,-0.63,-0.38,-0.11,0.74
13.238909006118774,1.33,-0.76,0.08,1.53
13.251485109329224,1.81,0.06,0.14,1.81
13.259594202041626,1.38,-0.06,1.24,1.85
13.271161079406738,0.47,0.55,0.88,1.13
13.28115725517273,-0.15,-0.15,1.03,1.05
13.28888201713562,-0.02,-0.27,0.62,0.67
13.301340103149414,0.55,-0.14,0.19,0.59
13.309264183044434,0.47,0.24,0.12,0.54
13.32120394706726,-0.11,0.59,-0.12,0.61
13.331419229507446,-0.5,0.26,-0.34,0.65
13.338950157165527,-0.76,-0.18,0.11,0.78
13.351310014724731,-0.78,-0.08,0.23,0.81
13.359616041183472,-0.86,0.1,0.07,0.86
13.371102094650269,-0.52,0.28,-0.14,0.6
13.381115198135376,0.23,0.4,0.36,0.58
13.388938188552856,0.55,0.49,0.46,0.86
13.4014732837677,0.71,0.25,0.04,0.75
13.409024953842163,0.76,0.01,0.13,0.77
13.421684980392456,0.22,-0.07,0.08,0.24
13.431657075881958,-0.44,-0.28,-0.34,0.62
13.438842058181763,-0.44,-0.32,-0.3,0.62
13.451452016830444,-0.29,-0.31,-0.35,0.55
13.459546089172363,-0.51,-0.42,-0.23,0.69
13.471625089645386,-1.26,-0.74,-0.14,1.46
13.481204271316528,-1.25,-0.03,-0.35,1.29
13.489107131958008,-0.77,0.42,-0.18,0.89
13.501415967941284,0.92,0.46,0.24,1.05
13.509031057357788,-0.23,0.49,0.2,0.57
13.521505117416382,-1.49,0.27,0.15,1.52
13.531562089920044,-1.43,0.28,0.33,1.49
13.539098978042603,-1.16,0.4,0.41,1.29
13.551413297653198,-0.67,0.42,0.27,0.83
13.559391260147095,-0.61,0.47,-0.03,0.77
13.571477174758911,-0.73,0.41,0.05,0.83
13.581278085708618,-0.52,0.08,0.32,0.61
13.589060068130493,-0.08,-0.08,-0.02,0.11
13.60143494606018,0.5,-0.36,0.03,0.61
13.608919143676758,0.27,-0.56,-0.31,0.69
13.621575117111206,-0.27,-0.45,-0.23,0.57
13.631656169891357,-0.22,-0.34,-0.15,0.43
13.639267206192017,0.2,-0.36,-0.01,0.41
13.65157413482666,0.27,-0.45,0.05,0.52
13.659433126449585,0.49,-0.65,-0.12,0.82
13.671602964401245,0.43,-0.6,-0.16,0.75
13.681403160095215,0.44,-0.3,0.16,0.55
13.68911623954773,0.22,-0.17,0.06,0.28
13.701477289199829,-0.04,-0.21,0.06,0.22
13.708852052688599,-0.12,-0.05,-0.2,0.23
13.72182297706604,0.33,-0.21,-0.03,0.39
13.731767177581787,0.35,-0.08,0.05,0.36
13.73916220664978,0.29,0.03,0.19,0.34
13.75160002708435,0.32,0.18,-0.08,0.37
13.759246110916138,0.29,0.3,0.14,0.44
13.771651029586792,0.55,0.1,0.31,0.63
13.78144907951355,0.45,-0.01,0.27,0.52
13.78919005393982,0.09,0.08,0.34,0.36
13.801653146743774,-0.2,-0.04,0.06,0.21
13.808894157409668,-0.3,-0.01,0.08,0.31
13.821882963180542,-0.22,-0.02,-0.02,0.22
13.831759214401245,-0.14,-0.07,0.11,0.19
13.839226007461548,-0.18,-0.01,0.09,0.2
13.85163426399231,-0.31,-0.14,-0.1,0.35
13.85930323600769,0.02,-0.11,-0.11,0.15
13.871719121932983,0.49,0.07,-0.02,0.49
13.881411075592041,-0.04,-0.11,0.0,0.11
13.889194250106812,0.25,-0.21,0.15,0.35
13.901647090911865,0.15,-0.2,-0.14,0.28
13.908704042434692,-0.05,-0.08,0.08,0.12
13.921828985214233,0.05,0.03,0.18,0.18
13.931806087493896,0.03,-0.1,0.21,0.23
13.939240217208862,0.08,-0.19,0.21,0.29
13.951626062393188,-0.22,0.04,0.1,0.24
13.959448099136353,-0.55,-0.08,-0.09,0.56
13.97221302986145,1.35,0.25,-0.31,1.4
13.9814932346344,0.1,0.21,0.22,0.32
13.989273071289062,0.12,0.09,-0.08,0.17
14.001708269119263,0.18,-0.24,-0.12,0.32
14.00886607170105,0.02,-0.21,-0.13,0.24
14.021894216537476,0.03,0.05,0.17,0.17
14.031893968582153,-0.1,-0.04,0.09,0.14
14.039403200149536,-0.24,0.05,0.03,0.24
14.05171799659729,-0.36,0.39,-0.02,0.53
14.059381246566772,-0.37,0.48,0.31,0.68
14.071601152420044,-0.26,0.04,0.27,0.37
14.081544160842896,0.1,-0.43,-0.12,0.45
14.088925123214722,0.07,-0.28,0.23,0.36
14.101811170578003,0.39,0.0,0.03,0.39
14.108933210372925,0.32,0.05,0.0,0.32
14.122323274612427,0.16,-0.01,-0.04,0.16
14.131754159927368,-0.12,-0.07,0.0,0.13
14.139084100723267,-0.03,-0.01,-0.01,0.03
14.151757955551147,-0.31,0.05,-0.05,0.31
14.15936017036438,-0.35,0.15,-0.06,0.38
14.17159914970398,-0.1,-0.04,-0.04,0.11
14.181496143341064,-0.15,-0.14,0.07,0.21
14.188974142074585,0.07,-0.09,-0.04,0.12
14.201800107955933,0.19,-0.01,0.04,0.19
14.209182024002075,0.25,0.16,-0.04,0.29
14.222100019454956,0.24,0.04,-0.1,0.26
14.23217511177063,0.15,-0.04,-0.04,0.16
14.239074945449829,0.11,0.13,-0.04,0.17
14.251659154891968,0.03,0.13,-0.04,0.13
14.259521245956421,-0.17,0.1,0.01,0.19
14.271852254867554,-0.23,0.07,0.0,0.24
14.281499147415161,-0.21,0.02,0.01,0.21
14.288933038711548,-0.1,-0.04,-0.12,0.16
14.301802158355713,-0.06,0.07,-0.08,0.12
14.309011220932007,-0.15,0.01,-0.04,0.15
14.32178521156311,-0.18,-0.21,-0.06,0.28
14.332072019577026,0.15,-0.05,0.07,0.17
14.339197158813477,0.0,0.05,-0.07,0.08
14.351850271224976,-0.08,0.03,-0.01,0.08
14.359559297561646,0.08,-0.02,-0.1,0.12
14.372145175933838,0.09,0.02,0.02,0.09
14.381704092025757,-0.01,0.02,0.13,0.13
14.3892080783844,-0.04,0.17,-0.03,0.17
14.401761293411255,-0.09,0.16,0.13,0.22
14.409054040908813,-0.13,0.0,0.16,0.2
14.421802282333374,0.01,0.04,0.07,0.08
14.431936025619507,0.13,-0.06,-0.06,0.15
14.439258098602295,0.03,-0.1,0.0,0.1
14.452090978622437,-0.1,-0.04,-0.21,0.23
14.459580183029175,-0.08,0.02,-0.09,0.12
14.472100973129272,-0.18,-0.06,0.02,0.19
14.481850147247314,-0.13,0.02,-0.16,0.2
14.489031076431274,-0.14,0.02,-0.12,0.18
14.501993179321289,-0.02,-0.01,-0.02,0.03
14.509183168411255,0.04,-0.03,0.19,0.19
14.521966218948364,0.05,0.03,0.16,0.17
14.531989097595215,0.11,0.02,0.04,0.11
14.539711236953735,0.01,-0.13,0.23,0.26
14.551866292953491,-0.02,-0.05,0.05,0.07
14.559617280960083,-0.04,0.15,0.02,0.15
14.571911096572876,0.0,0.07,-0.06,0.09
14.581674098968506,-0.09,0.09,-0.11,0.16
14.589140176773071,-0.17,0.01,-0.03,0.17
14.601930141448975,-0.04,0.02,0.0,0.04
14.60912823677063,-0.07,0.08,-0.04,0.11
14.621876955032349,-0.04,0.06,-0.04,0.08
14.6323881149292,-0.02,0.04,0.06,0.07
