time,ax,ay,az,atotal
0.0038788318634033203,-0.24,-0.04,0.71,0.75
0.011716842651367188,-0.4,-0.19,0.61,0.75
0.023553848266601562,-0.35,-0.45,0.23,0.61
0.031854867935180664,-0.09,-0.44,0.01,0.44
0.04472184181213379,0.18,-0.34,-0.21,0.43
0.05161476135253906,0.3,-0.28,-0.41,0.58
0.06178092956542969,0.25,-0.27,-0.51,0.62
0.0734868049621582,0.2,-0.31,-0.42,0.55
0.08172082901000977,0.1,-0.35,-0.21,0.42
0.09372568130493164,-0.05,-0.27,0.04,0.27
0.10162973403930664,-0.07,-0.21,0.16,0.27
0.11227679252624512,-0.07,-0.14,0.25,0.29
0.12477684020996094,-0.14,-0.02,0.27,0.3
0.1318659782409668,-0.16,-0.01,0.31,0.34
0.14471673965454102,-0.19,0.06,0.45,0.49
0.15166473388671875,-0.33,0.2,0.48,0.61
0.16188383102416992,-0.39,-0.01,0.46,0.6
0.1735067367553711,-0.3,-0.14,0.47,0.57
0.18178987503051758,-0.07,0.03,0.33,0.33
0.1936206817626953,0.14,0.17,0.2,0.29
0.20163393020629883,0.28,0.26,0.01,0.38
0.21172571182250977,0.27,0.3,-0.18,0.44
0.2234959602355957,0.22,0.14,-0.19,0.32
0.23172378540039062,0.22,-0.05,0.07,0.23
0.24366188049316406,0.29,-0.01,0.29,0.41
0.2516918182373047,0.15,0.04,0.23,0.27
0.26191186904907227,-0.3,0.15,0.16,0.37
0.2736067771911621,-0.61,0.43,0.02,0.74
0.2817859649658203,-0.67,0.47,-0.22,0.84
0.29488372802734375,-0.49,0.2,-0.4,0.66
0.30191898345947266,-0.19,-0.01,-0.19,0.26
0.3125877380371094,0.14,-0.03,-0.1,0.17
0.3251457214355469,0.26,0.01,-0.2,0.32
0.3319578170776367,0.29,0.13,-0.33,0.45
0.3436279296875,0.26,0.18,-0.35,0.47
0.35189390182495117,0.05,0.09,-0.36,0.37
0.36266183853149414,-0.11,0.0,-0.37,0.38
0.37473583221435547,-0.02,0.02,-0.23,0.23
0.38196468353271484,0.04,0.18,-0.17,0.25
0.39487481117248535,-0.04,0.22,-0.33,0.39
0.40187692642211914,-0.23,0.19,-0.5,0.58
0.41192078590393066,-0.31,0.24,-0.5,0.63
0.4246327877044678,-0.1,0.15,-0.37,0.41
0.43251466751098633,0.16,0.0,-0.22,0.27
0.4446728229522705,0.24,-0.11,-0.21,0.33
0.45513200759887695,0.31,-0.17,-0.1,0.36
0.4619607925415039,0.37,-0.17,-0.78,0.87
0.4746968746185303,0.05,-0.02,-0.1,0.11
0.4820866584777832,-0.08,-0.11,0.22,0.25
0.4949827194213867,-0.13,-0.1,0.62,0.64
0.502004861831665,-0.24,-0.1,0.82,0.86
0.5121316909790039,0.0,-0.09,0.37,0.38
0.5251979827880859,0.07,0.1,0.03,0.12
0.5320267677307129,-0.08,0.24,-0.19,0.31
0.5434448719024658,-0.17,0.34,-0.26,0.46
0.5518558025360107,-0.2,0.29,-0.28,0.45
0.5618138313293457,-0.18,0.12,-0.32,0.38
0.5731098651885986,-0.13,0.12,-0.16,0.23
0.5817809104919434,0.03,0.09,0.06,0.11
0.5933728218078613,0.2,0.01,0.21,0.29
0.6018598079681396,0.32,-0.06,0.22,0.39
0.6117298603057861,0.28,-0.06,0.03,0.28
0.6237518787384033,0.21,-0.11,-0.24,0.33
0.6319308280944824,0.22,-0.3,-0.44,0.57
0.6432976722717285,0.3,-0.46,-0.46,0.71
0.6518397331237793,0.26,-0.52,-0.54,0.79
0.6617448329925537,0.1,-0.59,-0.54,0.8
0.6730458736419678,0.02,-0.59,-0.33,0.67
0.6817638874053955,-0.03,-0.59,-0.19,0.62
0.6933548450469971,-0.01,-0.8,-0.08,0.8
0.7018828392028809,0.11,-1.01,0.1,1.02
0.7118487358093262,0.46,-1.1,0.29,1.22
0.723351001739502,0.68,-1.06,0.37,1.31
0.7319347858428955,0.57,-0.94,0.26,1.12
0.7434887886047363,0.39,-1.04,0.02,1.11
0.7519259452819824,0.21,-1.14,-0.19,1.17
0.7619457244873047,0.02,-0.96,-0.31,1.0
0.773216724395752,-0.3,-0.7,-0.63,0.98
0.7818536758422852,-0.55,-0.54,-0.85,1.14
0.7933859825134277,-0.35,-0.43,-0.79,0.96
0.8018858432769775,-0.11,-0.37,-0.67,0.77
0.81191086769104,-0.02,-0.52,-0.39,0.65
0.822880744934082,0.21,-0.78,-0.09,0.81
0.8318238258361816,0.52,-0.91,0.29,1.08
0.843472957611084,0.59,-0.96,0.66,1.3
0.8519108295440674,0.32,-1.0,0.64,1.22
0.8619227409362793,-0.04,-0.89,0.43,0.98
0.8732998371124268,-0.29,-0.85,-0.03,0.89
0.8818669319152832,-0.37,-1.01,-0.43,1.15
0.8934769630432129,-0.31,-1.18,-0.77,1.44
0.9019308090209961,0.09,-0.96,-0.93,1.33
0.9120028018951416,0.93,-0.87,-0.82,1.51
0.9234247207641602,1.31,-1.3,-0.84,2.02
0.931959867477417,1.25,-1.87,-1.01,2.46
0.9437658786773682,1.28,-2.02,-1.16,2.65
0.9521088600158691,1.45,-1.48,-1.01,2.3
0.962033748626709,1.64,-0.23,-0.41,1.7
0.9732608795166016,1.31,1.94,0.37,2.36
0.9819278717041016,0.38,4.61,1.03,4.73
0.9936919212341309,-0.15,7.46,0.98,7.52
1.002161979675293,-0.54,11.42,0.41,11.44
1.01253080368042,-0.46,15.42,0.33,15.43
1.0236117839813232,-0.36,17.83,0.79,17.85
1.0323948860168457,-0.61,19.01,1.71,19.09
1.043595790863037,-1.1,19.7,3.4,20.02
1.0521588325500488,-1.79,19.38,5.63,20.26
1.062227725982666,-2.21,18.13,7.42,19.71
1.0731828212738037,-2.48,15.97,8.2,18.12
1.082345962524414,-2.76,13.59,8.31,16.16
1.094268798828125,-3.08,11.71,7.86,14.43
1.1021528244018555,-3.91,9.97,6.65,12.6
1.112165927886963,-5.3,7.98,5.3,10.94
1.123654842376709,-6.55,6.17,4.34,9.99
1.1322288513183594,-7.32,4.31,3.56,9.21
1.1442999839782715,-7.74,2.08,3.2,8.62
1.1524739265441895,-7.79,0.13,3.3,8.46
1.162484884262085,-7.71,-1.59,3.45,8.59
1.1734719276428223,-7.71,-3.32,3.38,9.04
1.1821248531341553,-7.84,-4.79,3.12,9.7
1.1943387985229492,-7.91,-5.87,2.96,10.28
1.2021989822387695,-7.93,-6.68,2.62,10.69
1.212174892425537,-7.86,-7.26,1.84,10.85
1.2235348224639893,-7.7,-7.8,1.03,11.0
1.232177734375,-7.39,-8.45,0.33,11.23
1.2443346977233887,-7.07,-9.16,-0.26,11.57
1.2525219917297363,-6.87,-9.84,-0.65,12.01
1.262373924255371,-6.54,-10.55,-0.83,12.44
1.2734489440917969,-6.21,-11.22,-0.84,12.85
1.2823858261108398,-5.91,-11.7,-0.91,13.13
1.2944159507751465,-5.4,-11.96,-0.93,13.15
1.3022189140319824,-4.75,-11.99,-0.93,12.93
1.312295913696289,-4.24,-11.68,-1.12,12.47
1.3237907886505127,-3.9,-11.23,-1.47,11.97
1.3332858085632324,-3.69,-11.0,-1.86,11.75
1.3443799018859863,-3.6,-10.9,-2.2,11.68
1.3525466918945312,-3.54,-10.76,-2.43,11.58
1.3625998497009277,-3.37,-10.52,-2.45,11.31
1.3736038208007812,-3.17,-10.05,-2.44,10.81
1.3830897808074951,-2.92,-9.48,-2.49,10.22
1.3944718837738037,-2.72,-8.99,-2.32,9.67
1.4025959968566895,-2.62,-8.53,-2.04,9.15
1.4127039909362793,-2.56,-8.08,-1.56,8.61
1.4237489700317383,-2.54,-7.58,-1.04,8.06
1.4330508708953857,-2.68,-6.94,-0.52,7.45
1.4444289207458496,-3.08,-6.28,-0.19,6.99
1.4524598121643066,-3.82,-5.6,-0.26,6.78
1.4624958038330078,-4.54,-5.01,-0.48,6.77
1.4737839698791504,-4.72,-4.79,-0.57,6.74
1.4822497367858887,-4.3,-4.79,-0.51,6.45
1.4944539070129395,-3.74,-4.78,-0.42,6.08
1.502659797668457,-3.29,-4.85,-0.49,5.88
1.5125937461853027,-3.01,-5.09,-0.74,5.95
1.5238137245178223,-3.19,-5.33,-1.01,6.29
1.5328857898712158,-3.42,-5.4,-1.18,6.49
1.544334888458252,-3.24,-5.14,-0.85,6.13
1.5525827407836914,-3.11,-4.55,-0.16,5.51
1.5626258850097656,-3.57,-3.72,0.23,5.16
1.5736479759216309,-4.58,-2.98,0.23,5.46
1.5827898979187012,-5.76,-2.5,-0.08,6.27
1.594531774520874,-6.14,-2.13,-0.93,6.56
1.6026208400726318,-5.72,-1.04,-2.21,6.21
1.6126446723937988,-4.77,0.58,-2.69,5.5
1.6238508224487305,-3.41,1.89,-1.78,4.28
1.6332616806030273,-2.3,3.0,-0.33,3.79
1.64457368850708,-2.01,3.97,0.67,4.49
1.6524288654327393,-2.71,4.46,1.01,5.31
1.6624789237976074,-3.89,5.41,0.64,6.69
1.6737828254699707,-4.09,6.87,-0.09,7.99
1.6833338737487793,-3.84,7.98,-0.26,8.85
1.6945538520812988,-3.91,9.37,-0.36,10.15
1.7027959823608398,-4.08,10.8,-0.61,11.56
1.71297287940979,-4.48,11.87,-0.7,12.7
1.7238678932189941,-4.1,13.02,-0.48,13.65
1.7334346771240234,-2.95,13.27,-0.08,13.59
1.7443747520446777,-1.43,12.72,0.33,12.8
1.7530326843261719,-0.48,12.08,1.33,12.16
1.7630138397216797,-0.31,11.71,2.06,11.89
1.773918867111206,-0.27,10.98,2.24,11.2
1.7833929061889648,-0.37,10.47,2.25,10.71
1.7939887046813965,-0.78,10.22,2.11,10.46
1.8025226593017578,-1.13,9.54,1.83,9.77
1.8124938011169434,-1.08,8.82,1.61,9.03
1.8238258361816406,-0.34,8.1,1.37,8.22
1.8331618309020996,0.52,7.3,1.34,7.44
1.844477891921997,1.31,6.73,1.41,6.99
1.8527908325195312,1.69,6.17,1.56,6.58
1.8627357482910156,1.75,5.56,1.77,6.09
1.8739168643951416,1.61,5.26,1.92,5.82
1.8831157684326172,1.36,5.1,1.98,5.63
1.894601821899414,0.82,5.23,2.03,5.66
1.9027976989746094,-0.08,5.84,1.95,6.15
1.9128189086914062,-0.77,6.47,1.75,6.74
1.9239928722381592,-0.85,7.01,1.47,7.21
1.9331858158111572,-0.54,7.72,1.17,7.82
1.9443979263305664,-0.35,8.61,0.69,8.64
1.952420711517334,-0.44,9.52,0.16,9.53
1.9627788066864014,-0.95,9.94,-0.34,9.99
1.9738597869873047,-2.11,9.86,-0.23,10.08
1.9831438064575195,-3.35,9.62,0.49,10.19
1.9941596984863281,-4.13,9.07,1.24,10.04
2.002617835998535,-4.23,8.18,1.57,9.34
2.012819766998291,-4.25,7.58,1.43,8.8
2.023817777633667,-4.78,7.09,1.08,8.61
2.033141851425171,-5.58,6.07,0.7,8.27
2.0446949005126953,-6.04,4.67,0.15,7.63
2.0528087615966797,-5.95,3.18,-0.08,6.74
2.0628037452697754,-5.47,1.67,0.12,5.72
2.0740127563476562,-4.88,0.19,0.32,4.89
2.083103656768799,-4.76,-1.11,0.42,4.9
2.094630718231201,-5.06,-2.31,0.32,5.57
2.1028318405151367,-5.39,-3.54,0.08,6.44
2.1128387451171875,-5.54,-4.82,-0.19,7.34
2.1240007877349854,-5.44,-6.11,-0.58,8.2
2.133126735687256,-5.23,-7.31,-1.06,9.05
2.1446657180786133,-4.79,-8.25,-1.08,9.6
2.1528608798980713,-4.17,-8.85,-0.81,9.81
2.162895679473877,-3.65,-9.13,-0.57,9.84
2.173841953277588,-3.32,-9.16,-0.26,9.74
2.182994842529297,-3.1,-9.18,-0.1,9.68
2.194380760192871,-3.09,-9.23,-0.17,9.73
2.202577829360962,-3.4,-9.34,-0.68,9.96
2.212510824203491,-3.65,-9.58,-1.04,10.3
2.2239608764648438,-3.64,-9.77,-1.12,10.48
2.2330868244171143,-3.44,-9.67,-1.01,10.31
2.2441887855529785,-3.02,-9.37,-0.57,9.86
2.252676010131836,-2.69,-9.14,-0.32,9.53
2.2627158164978027,-2.57,-8.99,-0.24,9.35
2.2739548683166504,-2.62,-8.9,-0.22,9.28
2.283352851867676,-2.87,-8.89,-0.38,9.34
2.2942399978637695,-3.08,-8.79,-0.43,9.32
2.302910804748535,-2.98,-8.84,-0.35,9.33
2.3131227493286133,-2.79,-8.92,-0.19,9.34
2.3245577812194824,-2.55,-8.97,-0.02,9.32
2.333711862564087,-2.26,-8.95,-0.01,9.23
2.344719886779785,-1.93,-8.82,0.04,9.02
2.352942943572998,-1.66,-8.61,0.17,8.77
2.3627119064331055,-1.66,-8.28,0.33,8.45
2.374119758605957,-1.78,-7.92,0.53,8.13
2.383408784866333,-1.93,-7.66,0.55,7.91
2.394826889038086,-2.35,-7.22,-0.12,7.59
2.403073787689209,-2.79,-6.81,-0.93,7.41
2.412900924682617,-3.19,-6.81,-1.2,7.61
2.4246268272399902,-3.53,-6.87,-1.5,7.86
2.4336037635803223,-3.63,-7.15,-1.86,8.23
2.4448318481445312,-3.92,-7.73,-2.0,8.89
2.4527087211608887,-3.71,-8.34,-1.81,9.3
2.462747812271118,-3.21,-8.91,-1.5,9.58
2.4740829467773438,-3.23,-8.93,-1.29,9.58
2.483139991760254,-3.15,-8.48,-1.04,9.1
2.4947457313537598,-3.09,-7.53,-0.83,8.18
2.502762794494629,-3.37,-5.82,-0.66,6.75
2.5130467414855957,-3.79,-4.08,-0.57,5.59
2.5245919227600098,-4.32,-2.56,-0.62,5.05
2.533568859100342,-5.18,-0.86,-0.83,5.31
2.544926881790161,-6.89,0.4,-0.37,6.91
2.553050994873047,-8.3,1.12,0.04,8.37
2.5629749298095703,-8.4,2.22,0.19,8.69
2.5740537643432617,-7.08,4.39,0.52,8.34
2.5831170082092285,-5.89,5.81,1.62,8.43
2.5941948890686035,-5.04,8.26,1.77,9.83
2.6029419898986816,-5.0,10.83,1.7,12.04
2.6132760047912598,-5.06,11.83,0.52,12.87
2.623894691467285,-4.54,12.39,-1.11,13.24
2.6331686973571777,-2.22,13.75,-1.09,13.97
2.6445937156677246,-1.31,13.88,0.11,13.94
2.653284788131714,-1.41,13.99,0.1,14.06
2.6631059646606445,-2.48,13.63,0.37,13.85
2.673783779144287,-2.85,13.67,0.56,13.97
2.682945728302002,-2.47,13.36,0.37,13.59
2.6943259239196777,-1.41,12.71,-0.57,12.8
2.703763961791992,0.45,12.46,-1.78,12.59
2.712916851043701,1.78,11.66,-1.69,11.91
2.7238738536834717,1.68,10.17,-0.99,10.35
2.732980728149414,1.54,8.37,0.23,8.51
2.7442758083343506,1.59,7.16,1.77,7.54
2.7528698444366455,1.13,6.23,2.63,6.85
2.7628607749938965,0.95,5.11,2.59,5.8
2.7742199897766113,1.48,4.79,2.48,5.59
2.7829787731170654,1.25,5.16,2.78,5.99
2.79439377784729,0.39,5.43,2.94,6.18
2.802907943725586,-0.51,5.63,2.57,6.2
2.812837839126587,-0.95,6.35,2.1,6.75
2.8242697715759277,-1.12,7.19,1.21,7.37
2.8329577445983887,-1.29,7.79,-0.05,7.89
2.8443567752838135,-1.28,8.32,-0.75,8.45
2.8531270027160645,-1.15,9.1,-0.39,9.18
2.863109827041626,-1.38,9.99,0.54,10.09
2.8742787837982178,-2.23,10.37,1.41,10.7
2.883042812347412,-3.34,10.4,2.04,11.11
2.8947718143463135,-4.36,10.9,2.52,12.0
2.903334856033325,-5.0,11.24,2.6,12.57
2.913360834121704,-4.85,10.58,2.44,11.89
2.923996925354004,-4.74,9.96,2.52,11.31
2.932919979095459,-5.33,9.44,2.3,11.08
2.944415807723999,-5.62,8.1,1.72,10.0
2.952662944793701,-5.64,6.72,1.1,8.84
2.963014841079712,-5.57,5.42,0.42,7.78
2.9740488529205322,-5.35,3.82,-0.42,6.58
2.98268985748291,-5.37,2.56,-0.97,6.02
2.994464874267578,-5.61,1.26,-1.13,5.85
3.003004789352417,-5.6,-0.45,-1.25,5.75
3.0131068229675293,-5.25,-2.27,-1.43,5.89
3.024005889892578,-4.78,-4.05,-1.52,6.44
3.032900810241699,-4.38,-5.61,-1.57,7.28
3.0445408821105957,-3.98,-6.94,-1.77,8.19
3.0530288219451904,-3.5,-8.14,-1.75,9.03
3.062985897064209,-2.93,-9.16,-1.58,9.74
3.0743768215179443,-2.41,-10.11,-1.3,10.47
3.0828638076782227,-1.96,-10.87,-0.7,11.06
3.0943989753723145,-1.5,-11.11,-0.17,11.21
3.1033577919006348,-1.29,-10.79,0.16,10.86
3.1133337020874023,-1.45,-10.27,0.35,10.37
3.124473810195923,-1.58,-10.03,0.33,10.15
3.13297176361084,-1.73,-10.1,0.2,10.24
3.1445260047912598,-2.17,-10.02,0.1,10.25
3.153010845184326,-3.04,-9.77,-0.04,10.23
3.163038730621338,-3.64,-9.9,-0.1,10.54
3.174363851547241,-3.56,-10.06,-0.11,10.67
3.182924747467041,-3.08,-9.76,-0.09,10.23
3.194565773010254,-2.38,-9.29,0.07,9.59
3.2030417919158936,-1.54,-9.05,0.23,9.18
3.2131409645080566,-0.96,-8.95,0.38,9.0
3.2244338989257812,-0.96,-8.75,0.33,8.8
3.232954978942871,-0.99,-8.84,0.08,8.89
3.2445948123931885,-0.96,-8.99,-0.12,9.04
3.253072738647461,-0.94,-8.71,-0.2,8.76
3.263110876083374,-0.77,-8.34,-0.19,8.37
3.274399757385254,-0.51,-8.22,-0.08,8.23
3.282902717590332,-0.35,-8.34,0.08,8.34
3.294734001159668,-0.55,-8.3,0.2,8.32
3.3030829429626465,-0.68,-8.13,0.41,8.16
3.313114881515503,-1.05,-7.98,0.54,8.06
3.3242287635803223,-1.41,-7.86,0.31,7.99
3.333010673522949,-1.01,-8.05,-0.15,8.11
3.3446028232574463,-0.36,-8.73,-0.22,8.74
3.353073835372925,0.15,-9.45,-0.09,9.45
3.363154888153076,0.58,-9.48,-0.11,9.49
3.374203681945801,0.83,-9.12,-0.62,9.17
3.3831586837768555,0.12,-8.64,-0.94,8.69
3.394723892211914,-1.05,-7.82,-1.37,8.0
3.403127670288086,-2.26,-6.99,-1.99,7.61
3.413149833679199,-3.65,-6.31,-2.29,7.64
3.424227714538574,-4.49,-5.45,-1.99,7.33
3.432877779006958,-3.84,-4.32,-1.85,6.06
3.4445688724517822,-3.22,-3.28,-1.7,4.9
3.4529876708984375,-3.48,-2.56,-1.95,4.73
3.462965965270996,-4.01,-1.56,-2.06,4.77
3.474174976348877,-4.54,0.17,-0.86,4.62
3.482801914215088,-4.9,1.55,2.06,5.53
3.4946279525756836,-5.51,2.31,5.13,7.87
3.5031657218933105,-6.77,3.56,6.82,10.24
3.5131607055664062,-8.13,5.45,7.28,12.19
3.5245227813720703,-8.63,6.91,5.69,12.43
3.533141851425171,-9.02,8.27,3.41,12.7
3.54471492767334,-9.24,9.8,2.53,13.7
3.553194999694824,-8.69,10.82,3.08,14.21
3.5631868839263916,-6.89,10.72,4.29,13.44
3.5742788314819336,-4.02,9.87,5.51,11.99
3.58309268951416,-1.97,9.14,5.97,11.09
3.594817876815796,-0.97,8.89,5.66,10.58
3.60337495803833,-0.25,9.07,4.67,10.2
3.6132237911224365,0.39,8.75,3.33,9.37
3.6246657371520996,0.01,9.1,1.83,9.28
3.6331729888916016,-1.6,9.34,2.26,9.74
3.644866943359375,-2.88,8.87,1.58,9.45
3.6532437801361084,-2.69,8.22,0.45,8.66
3.6632819175720215,-1.24,6.68,-0.77,6.83
3.67464280128479,0.37,5.38,-0.94,5.47
3.6831369400024414,2.11,5.76,0.74,6.17
3.694920778274536,2.33,5.69,2.2,6.53
3.7032389640808105,0.32,5.54,3.05,6.33
3.7134246826171875,-2.41,6.62,4.61,8.41
3.7246389389038086,-3.82,7.2,4.61,9.36
3.733259677886963,-2.78,7.43,3.93,8.85
3.7447776794433594,-1.98,7.89,3.75,8.95
3.7532529830932617,-1.68,8.02,3.9,9.07
3.763223886489868,-1.68,8.78,4.21,9.88
3.774697780609131,-3.49,9.71,4.64,11.31
3.783259868621826,-4.42,10.64,4.96,12.54
3.7955379486083984,-3.74,10.96,4.26,12.33
3.8037729263305664,-2.98,11.02,4.16,12.15
3.8137588500976562,-3.77,10.89,5.63,12.82
3.8245596885681152,-4.52,10.48,6.51,13.13
3.8333539962768555,-4.89,9.75,7.39,13.17
3.844777822494507,-5.31,8.05,7.45,12.18
3.853332996368408,-4.91,6.81,6.9,10.86
3.8633248805999756,-4.92,5.7,6.06,9.66
3.874729871749878,-6.03,4.98,5.8,9.73
3.88334584236145,-7.19,2.22,4.45,8.74
3.895474910736084,-6.52,0.24,2.88,7.13
3.9033398628234863,-4.87,-0.93,2.45,5.53
3.913644790649414,-4.16,-2.67,2.2,5.41
3.9247958660125732,-3.6,-3.99,2.38,5.87
3.9334678649902344,-3.05,-5.02,2.61,6.42
3.9447968006134033,-3.72,-7.24,1.72,8.31
3.953312873840332,-3.9,-8.71,1.01,9.59
3.9634058475494385,-3.83,-10.03,0.01,10.73
3.9747047424316406,-2.7,-9.92,-0.58,10.29
3.983325958251953,-2.3,-10.18,-0.74,10.46
3.9949448108673096,-2.89,-10.65,-1.25,11.1
4.003540992736816,-2.65,-11.06,-1.31,11.44
4.013387680053711,-1.7,-11.47,-1.39,11.67
4.024535655975342,-0.98,-11.67,-1.13,11.76
4.033438682556152,-0.86,-11.67,-0.61,11.71
4.045017719268799,-0.97,-11.55,-0.09,11.59
4.053420782089233,-1.24,-11.24,0.32,11.31
4.06339693069458,-1.44,-10.94,0.2,11.03
4.074803829193115,-1.59,-10.59,-0.09,10.7
4.08344578742981,-1.88,-10.15,-0.37,10.32
4.094913005828857,-2.66,-10.04,-0.4,10.39
4.103451728820801,-2.43,-9.29,-0.24,9.6
4.113504886627197,-2.11,-9.09,0.18,9.33
4.124906778335571,-2.77,-9.47,0.65,9.88
4.133469820022583,-1.55,-8.72,0.79,8.89
4.144959926605225,-1.38,-8.8,0.88,8.95
4.153578758239746,-1.62,-8.58,0.84,8.77
4.163416862487793,-1.69,-8.11,0.63,8.3
4.174862861633301,-1.73,-7.76,0.17,7.95
4.183501720428467,-1.45,-7.36,-0.31,7.5
4.195062875747681,-1.37,-6.93,-0.75,7.1
4.203560829162598,-1.61,-6.54,-1.04,6.81
4.213527679443359,-1.85,-6.1,-1.1,6.46
4.224626779556274,-1.88,-5.53,-1.05,5.93
4.233540773391724,-1.9,-6.16,-2.07,6.77
4.244880676269531,-1.62,-5.7,-1.81,6.19
4.253513813018799,-1.7,-5.85,-1.49,6.27
4.263591766357422,-1.34,-5.61,-0.94,5.84
4.274916887283325,-1.73,-6.53,-0.77,6.79
4.28334379196167,-1.7,-6.08,-0.36,6.32
4.295198917388916,-1.98,-5.97,0.23,6.29
4.303390979766846,-2.18,-5.85,0.04,6.24
4.318992853164673,-2.51,-5.69,0.12,6.22
4.324611663818359,-2.39,-5.42,0.01,5.92
4.333492755889893,-2.6,-5.06,-0.1,5.68
4.345109939575195,-2.84,-4.64,-0.2,5.44
4.353540897369385,-3.33,-4.26,-0.33,5.41
4.363504886627197,-3.68,-3.93,-0.46,5.4
4.374527931213379,-2.82,-3.71,-0.04,4.66
4.383456707000732,-1.32,-3.17,1.2,3.63
4.395030975341797,0.08,-1.39,2.52,2.87
4.403636932373047,-0.15,-1.63,1.84,2.46
4.418730735778809,-0.32,-0.88,1.51,1.77
4.424692869186401,-2.75,0.36,1.64,3.22
4.433417797088623,-4.35,2.48,2.18,5.46
4.445007801055908,-6.05,2.48,2.86,7.13
4.4536237716674805,-5.28,4.73,3.43,7.87
4.469047784805298,-4.91,5.78,3.59,8.39
4.474984884262085,-4.84,6.95,2.89,8.94
4.483644962310791,-4.63,8.11,1.74,9.49
4.495203971862793,-4.62,8.51,0.54,9.69
4.503501892089844,-4.83,8.86,0.32,10.09
4.518528938293457,-5.35,9.52,1.35,11.0
4.524700880050659,-4.91,10.39,2.34,11.72
4.533988952636719,-4.38,10.9,2.31,11.97
4.545156955718994,-4.32,11.26,2.13,12.24
4.553901672363281,-4.07,11.22,1.74,12.06
4.568734884262085,-3.38,11.07,1.41,11.66
4.574588775634766,-2.84,10.53,1.75,11.04
4.58355188369751,-2.32,9.92,2.51,10.49
4.5952417850494385,-1.1,9.4,2.65,9.82
4.603725910186768,0.02,8.63,1.95,8.84
4.619106769561768,0.54,8.03,1.19,8.13
4.625026702880859,0.65,7.69,0.65,7.74
4.633657932281494,0.41,7.65,0.44,7.67
4.645098686218262,-0.46,7.73,0.58,7.76
4.653624773025513,-1.41,7.96,0.69,8.11
4.668834686279297,-1.63,8.36,0.7,8.54
4.675181865692139,-1.28,8.62,0.31,8.72
4.683847904205322,-0.93,8.8,0.42,8.85
4.695258855819702,-1.48,9.33,1.07,9.5
4.703694820404053,-2.95,10.12,2.16,10.76
4.71931791305542,-3.99,10.94,3.58,12.18
4.725100994110107,-4.12,11.19,4.32,12.68
4.734216690063477,-3.67,11.25,4.64,12.71
4.745495796203613,-3.98,11.04,5.0,12.75
4.754080772399902,-5.31,10.97,5.33,13.3
4.769336700439453,-6.53,10.48,5.32,13.44
4.775058746337891,-6.52,8.94,4.95,12.12
4.783825874328613,-5.5,7.58,4.32,10.31
4.795256853103638,-5.06,5.76,3.95,8.62
4.8038249015808105,-4.88,3.79,3.67,7.18
4.819380760192871,-4.54,1.94,3.27,5.92
4.8251447677612305,-4.19,-0.01,2.87,5.07
4.8337860107421875,-3.44,-1.4,2.26,4.34
4.845290660858154,-3.37,-2.91,1.68,4.75
4.853774785995483,-3.73,-4.46,0.97,5.89
4.869330883026123,-3.66,-5.41,0.13,6.53
4.875144004821777,-4.04,-6.5,-0.64,7.67
4.883788824081421,-3.61,-7.21,-1.07,8.13
4.895331859588623,-3.06,-8.1,-0.97,8.71
4.903721809387207,-2.38,-8.6,-0.71,8.95
4.91945481300354,-1.33,-8.55,-0.15,8.65
4.92522668838501,-1.05,-9.06,0.32,9.12
4.933854818344116,-1.76,-9.86,0.82,10.04
4.945318698883057,-1.61,-9.43,1.62,9.7
4.953901767730713,-1.54,-9.36,2.1,9.71
4.969226837158203,-1.82,-9.11,2.33,9.57
4.974694728851318,-2.26,-8.84,1.99,9.33
4.98356294631958,-2.62,-8.75,1.28,9.22
4.995132923126221,-2.96,-8.27,0.82,8.82
5.003704786300659,-2.86,-7.96,0.28,8.46
5.0190277099609375,-2.12,-7.81,-0.21,8.09
5.025172710418701,-1.39,-7.77,-0.45,7.9
5.0336689949035645,-1.0,-7.66,-0.25,7.72
5.045031785964966,-0.64,-7.54,0.02,7.56
5.053727865219116,-0.45,-7.38,-0.04,7.39
5.0691657066345215,-0.88,-7.11,-0.04,7.16
5.074855804443359,-1.53,-6.78,-0.02,6.95
5.0836498737335205,-2.39,-6.5,-0.17,6.92
5.095391750335693,-2.44,-6.28,-0.71,6.77
5.103961944580078,-1.81,-6.51,-1.69,6.96
5.11953067779541,-0.69,-5.49,-0.83,5.59
5.124903678894043,-0.22,-5.28,-1.35,5.45
5.133803844451904,-0.64,-6.08,-2.41,6.57
5.145378828048706,-0.61,-5.7,-2.37,6.2
5.153832912445068,-0.65,-5.38,-2.32,5.89
5.169578790664673,-0.69,-5.49,-2.58,6.1
5.174915790557861,-0.66,-5.43,-2.79,6.14
5.183719873428345,-0.78,-5.24,-2.57,5.88
5.195189952850342,-0.82,-5.08,-2.31,5.64
5.203714847564697,-0.84,-5.09,-1.97,5.52
5.218780994415283,-1.26,-5.14,-1.37,5.46
5.224963665008545,-1.96,-5.67,-0.94,6.07
5.233800888061523,-1.44,-5.57,0.02,5.75
5.2449727058410645,-0.81,-5.72,0.97,5.85
5.253762722015381,-0.77,-5.99,1.2,6.15
5.269250869750977,-0.6,-5.46,1.58,5.71
5.274906873703003,-0.83,-5.21,1.12,5.39
5.283796787261963,-1.11,-5.11,0.04,5.22
5.295502662658691,-1.32,-4.68,-0.5,4.88
5.303800821304321,-1.56,-4.4,-1.35,4.85
5.31972599029541,-1.79,-4.36,-1.74,5.02
5.325009822845459,-2.05,-4.32,-1.36,4.97
5.3338258266448975,-2.11,-4.31,-0.66,4.84
5.3453779220581055,-1.81,-4.21,0.29,4.59
5.353895664215088,-1.64,-3.69,1.19,4.2
5.369430780410767,-0.91,-2.76,1.25,3.16
5.374926805496216,-0.4,-1.97,0.52,2.07
5.383826732635498,-0.43,-0.91,-0.8,1.28
5.395532846450806,-1.77,-0.3,-1.9,2.61
5.404049873352051,-3.75,0.49,-1.61,4.11
5.419639825820923,-4.76,1.41,-0.25,4.97
5.42498779296875,-4.64,2.16,2.13,5.54
5.4338579177856445,-3.82,2.86,4.25,6.39
5.4453558921813965,-2.27,3.54,5.28,6.75
5.4537718296051025,-1.52,4.14,5.2,6.81
5.4695940017700195,-1.96,5.37,4.55,7.3
5.474961757659912,-3.38,6.6,3.22,8.08
5.483853816986084,-4.79,7.53,2.04,9.15
5.495577812194824,-5.23,8.7,1.4,10.24
5.503852844238281,-5.02,9.32,1.11,10.64
5.519576787948608,-4.15,9.36,1.6,10.36
5.525080680847168,-3.32,9.43,2.61,10.33
5.533827781677246,-2.86,9.47,3.62,10.53
5.545565843582153,-2.18,9.21,4.3,10.39
5.553862810134888,-1.44,9.08,5.02,10.47
5.569610834121704,-0.49,9.03,5.15,10.4
5.575088977813721,-0.07,8.51,4.31,9.53
5.58390998840332,0.06,8.24,3.32,8.88
5.595546722412109,0.01,8.1,2.47,8.46
5.603917837142944,0.0,7.81,1.96,8.05
5.619527816772461,0.19,7.63,1.55,7.78
5.6251208782196045,0.28,7.42,1.23,7.52
5.634052753448486,0.08,7.41,1.3,7.52
5.645157814025879,-0.58,7.52,1.48,7.68
5.65390682220459,-1.61,7.95,1.99,8.35
5.669403791427612,-2.42,8.62,2.56,9.31
5.675148963928223,-2.17,9.13,2.48,9.7
5.683887004852295,-1.98,9.59,2.49,10.1
5.695555686950684,-2.58,10.18,2.81,10.87
5.703964710235596,-2.99,10.73,3.2,11.58
5.719042778015137,-3.23,11.18,3.8,12.24
5.725114822387695,-3.57,11.19,4.13,12.45
5.734571933746338,-3.35,10.84,3.81,11.96
5.745238780975342,-3.1,10.24,3.8,11.35
5.753983974456787,-3.74,9.59,3.83,10.98
5.769523859024048,-4.62,8.64,3.78,10.5
5.775291919708252,-5.4,7.55,4.2,10.18
5.784008979797363,-5.51,6.19,4.17,9.27
5.795338869094849,-5.37,4.4,3.8,7.91
5.803979873657227,-5.03,2.63,3.37,6.6
5.819389820098877,-4.74,0.96,2.81,5.59
5.82511568069458,-4.63,-0.59,2.02,5.08
5.834032773971558,-5.04,-1.94,1.53,5.61
5.845165729522705,-5.57,-3.15,1.39,6.54
5.854005813598633,-5.7,-4.09,1.5,7.17
5.869292736053467,-5.54,-5.52,1.43,7.95
5.875240802764893,-4.92,-6.9,1.25,8.56
5.883985996246338,-4.03,-7.42,1.7,8.61
5.895371913909912,-3.75,-8.15,2.1,9.21
5.904021739959717,-3.78,-9.5,2.05,10.42
5.9194159507751465,-3.02,-9.65,2.25,10.35
5.925293922424316,-2.89,-9.95,2.56,10.67
5.934085845947266,-3.35,-10.19,2.29,10.96
5.945690870285034,-3.2,-10.13,2.11,10.83
5.953919887542725,-2.79,-10.3,1.79,10.82
5.9692158699035645,-2.38,-10.34,1.41,10.7
5.97516393661499,-2.04,-10.19,1.11,10.45
5.983932971954346,-1.99,-9.98,0.99,10.22
5.995311737060547,-2.08,-9.66,0.92,9.92
6.004133701324463,-2.16,-9.36,0.62,9.62
6.019922733306885,-2.33,-9.14,0.28,9.43
6.025336742401123,-2.69,-8.99,0.17,9.38
6.034177780151367,-2.53,-8.65,0.12,9.01
6.045442819595337,-2.07,-8.42,0.14,8.67
6.054196834564209,-1.69,-8.49,0.27,8.66
6.069285869598389,-1.52,-8.31,0.57,8.46
6.075324773788452,-1.49,-8.12,0.64,8.28
6.084028720855713,-1.52,-8.05,0.26,8.19
6.096293926239014,-1.48,-7.94,-0.3,8.08
6.104074954986572,-1.23,-7.64,-0.8,7.77
6.1194748878479,-0.65,-7.03,-1.21,7.16
6.125270843505859,-0.76,-7.51,-2.0,7.8
6.134151935577393,-0.82,-7.34,-3.04,7.98
6.146349906921387,-1.24,-6.88,-2.38,7.38
6.154122829437256,-1.71,-6.48,-2.15,7.03
6.169135808944702,-1.58,-6.48,-2.05,6.97
6.175336837768555,-1.22,-6.64,-1.53,6.92
6.18406867980957,-1.03,-6.63,-0.96,6.77
6.19551682472229,-1.23,-6.7,-0.5,6.83
6.204153776168823,-1.81,-6.75,0.07,6.98
6.218883991241455,-1.75,-6.6,0.83,6.87
6.225355863571167,-1.31,-6.49,1.1,6.71
6.234216690063477,-1.01,-6.5,1.01,6.65
6.245429992675781,-0.89,-6.21,1.05,6.36
6.254140853881836,-1.1,-5.9,0.93,6.07
6.269345760345459,-1.88,-5.36,0.78,5.73
6.275302886962891,-2.65,-4.48,0.9,5.28
6.284101963043213,-3.31,-3.58,0.95,4.96
6.295435905456543,-3.79,-2.71,1.08,4.78
6.304151773452759,-3.6,-1.72,1.21,4.16
6.3192298412323,-2.58,-1.08,0.97,2.96
6.3251519203186035,-1.54,-0.93,0.79,1.96
6.334092855453491,-1.13,-0.81,0.51,1.48
6.346120834350586,-1.33,-0.14,0.5,1.42
6.354328870773315,-2.03,1.32,0.95,2.6
6.368855953216553,-2.86,2.82,1.33,4.23
6.375364780426025,-3.69,3.88,1.18,5.48
6.384146690368652,-3.88,4.67,0.68,6.1
6.396147727966309,-3.87,5.05,0.52,6.38
6.404272794723511,-3.82,5.32,0.81,6.59
6.418921947479248,-3.6,6.21,1.81,7.4
6.425210952758789,-3.63,6.95,2.64,8.27
6.434147834777832,-3.28,7.66,2.22,8.62
6.446650981903076,-3.01,8.71,1.58,9.34
6.454250812530518,-3.49,9.42,0.66,10.06
6.468826770782471,-3.78,10.06,-0.23,10.74
6.475198745727539,-4.1,10.58,-0.22,11.34
6.484670877456665,-4.7,10.8,0.8,11.8
6.496435880661011,-4.15,11.21,2.41,12.19
6.5045599937438965,-3.12,11.13,2.78,11.88
6.518495798110962,-1.96,10.68,2.45,11.13
6.525256872177124,-1.36,10.06,2.04,10.35
6.534254789352417,-1.42,9.56,1.68,9.8
6.546114921569824,-1.6,9.0,1.69,9.29
6.554229736328125,-1.14,8.5,1.72,8.74
6.56880784034729,-0.4,8.0,1.25,8.1
6.575199842453003,-0.01,7.46,0.6,7.48
6.584342956542969,0.18,7.17,0.34,7.18
6.596185684204102,-0.18,7.15,0.45,7.16
6.604309797286987,-0.68,7.26,0.51,7.3
6.618917942047119,-0.88,7.59,0.44,7.65
6.6255106925964355,-1.02,7.95,0.64,8.04
6.634346961975098,-1.11,8.25,1.01,8.38
6.6461708545684814,-1.14,8.71,1.48,8.9
6.654292821884155,-1.44,9.46,1.77,9.73
6.668728828430176,-2.12,10.4,1.8,10.76
6.675606727600098,-3.07,11.89,2.15,12.46
6.684874773025513,-4.59,13.57,2.67,14.57
6.696468830108643,-6.61,14.05,2.95,15.8
6.705022811889648,-7.3,13.86,3.29,16.0
6.718483924865723,-6.91,13.59,4.09,15.78
6.725286960601807,-6.92,11.96,4.15,14.42
6.734273910522461,-7.11,9.36,3.66,12.31
6.746212959289551,-6.7,7.46,3.55,10.63
6.754378795623779,-6.28,5.11,3.1,8.66
6.7690629959106445,-6.25,2.72,2.74,7.34
6.775245666503906,-6.08,0.69,2.42,6.58
6.784389972686768,-5.77,-1.32,1.92,6.22
6.796283721923828,-5.47,-3.33,1.45,6.56
6.804416656494141,-5.2,-5.21,1.16,7.45
6.818842887878418,-5.5,-6.8,1.26,8.83
6.825507879257202,-6.28,-8.12,1.75,10.41
6.834495782852173,-5.82,-9.36,1.96,11.19
6.84614896774292,-4.61,-10.43,2.16,11.6
6.8545379638671875,-3.59,-11.15,2.3,11.93
6.868582725524902,-3.13,-11.63,2.37,12.27
6.875365734100342,-2.69,-11.73,2.34,12.25
6.884418964385986,-2.76,-11.76,2.02,12.24
6.896428823471069,-3.15,-11.6,1.89,12.16
6.904514789581299,-3.34,-11.44,1.74,12.04
6.918684959411621,-2.9,-11.4,1.27,11.83
6.92793083190918,-2.34,-11.36,0.86,11.63
6.934508800506592,-2.03,-11.14,0.55,11.33
6.94619083404541,-1.83,-10.87,0.29,11.02
6.954358816146851,-2.06,-10.63,0.04,10.82
6.968817710876465,-2.41,-10.41,0.13,10.68
6.975319862365723,-2.65,-10.22,0.59,10.57
6.984384775161743,-2.75,-10.02,1.07,10.44
6.996095657348633,-2.67,-9.81,1.19,10.23
7.004434823989868,-2.51,-9.55,1.06,9.93
7.0183727741241455,-2.37,-9.23,0.9,9.57
7.02545166015625,-2.14,-8.95,0.56,9.21
7.034456729888916,-1.68,-8.7,0.02,8.86
7.046496868133545,-1.47,-8.48,-0.56,8.62
7.054471969604492,-1.44,-8.17,-0.87,8.34
7.068752765655518,-1.51,-7.8,-1.0,8.0
7.075457811355591,-1.62,-7.47,-1.12,7.72
7.084550857543945,-1.72,-7.13,-1.15,7.42
7.096427917480469,-1.56,-6.82,-1.3,7.11
7.104657888412476,-1.44,-6.67,-1.45,6.97
7.118950843811035,-1.43,-6.53,-1.28,6.8
7.125663757324219,-1.36,-6.38,-1.17,6.62
7.134653806686401,-1.51,-6.26,-1.26,6.56
7.146695852279663,-1.8,-6.21,-1.47,6.63
7.154536724090576,-1.83,-6.27,-1.71,6.75
7.169134855270386,-2.02,-6.33,-1.75,6.87
7.175763845443726,-2.47,-6.25,-1.28,6.84
7.18454384803772,-2.44,-5.92,-0.56,6.42
7.196915864944458,-2.18,-5.76,-0.16,6.16
7.204768657684326,-2.12,-5.62,0.31,6.01
7.219579696655273,-1.84,-5.22,0.92,5.61
7.225770950317383,-2.04,-4.83,1.24,5.38
7.234630823135376,-2.17,-4.27,1.38,4.98
7.24678897857666,-2.2,-3.61,1.16,4.38
7.25459098815918,-2.04,-2.73,0.73,3.48
7.268777847290039,-2.26,-1.84,0.45,2.94
7.275688886642456,-2.79,-0.91,0.17,2.93
7.284646987915039,-2.81,-0.14,-0.07,2.81
7.297034740447998,-3.1,0.32,0.0,3.11
7.304775714874268,-3.32,1.17,0.78,3.6
7.319621801376343,-3.13,2.14,1.81,4.2
7.325750827789307,-3.28,3.26,2.63,5.32
7.33465576171875,-4.03,4.57,3.28,6.91
7.347012996673584,-4.99,6.11,3.16,8.49
7.354804992675781,-5.18,7.38,1.94,9.22
7.369516849517822,-4.57,8.24,0.9,9.46
7.375706672668457,-3.85,9.25,0.69,10.04
7.38472580909729,-4.11,9.89,0.91,10.74
7.397105693817139,-4.91,10.54,1.56,11.73
7.405117988586426,-5.2,11.39,1.88,12.66
7.419262886047363,-5.35,11.87,2.0,13.17
7.425757884979248,-5.26,11.79,2.14,13.08
7.435215950012207,-4.12,11.66,2.04,12.53
7.446496963500977,-2.82,11.0,1.92,11.51
7.4547038078308105,-2.03,10.38,1.45,10.67
7.468864917755127,-1.69,10.01,1.08,10.2
7.475928783416748,-1.02,9.6,0.43,9.66
7.4846696853637695,-0.36,9.03,-0.02,9.03
7.496747970581055,0.05,8.52,-0.11,8.52
7.504695892333984,0.11,8.01,0.58,8.03
7.519140720367432,-0.28,7.48,1.53,7.64
7.525908946990967,-0.19,7.2,2.46,7.61
7.534721851348877,0.35,6.77,2.75,7.31
7.54697585105896,0.71,6.53,2.56,7.04
7.554718971252441,0.25,6.73,2.1,7.05
7.569390773773193,-0.54,7.13,1.69,7.34
7.575984954833984,-0.95,7.51,1.33,7.68
7.584796905517578,-1.26,7.96,1.13,8.13
7.596763849258423,-1.15,8.4,1.1,8.54
7.604801654815674,-1.4,8.62,1.18,8.81
7.6186888217926025,-2.2,9.04,1.7,9.45
7.625849723815918,-3.0,9.5,2.09,10.17
7.6347737312316895,-3.16,9.78,2.28,10.52
7.646632671356201,-3.16,9.71,2.36,10.48
7.654739856719971,-3.37,9.23,2.11,10.04
7.668651819229126,-3.57,8.76,1.99,9.66
7.675580978393555,-4.25,8.56,2.07,9.77
7.68481183052063,-5.54,8.07,2.12,10.01
7.696808815002441,-6.0,7.34,2.43,9.78
7.704714775085449,-5.93,6.26,2.87,9.08
7.718745708465576,-5.56,4.84,3.26,8.06
7.7256999015808105,-4.7,3.38,3.01,6.52
7.734749794006348,-4.13,2.03,2.58,5.27
7.7466418743133545,-4.17,0.81,2.32,4.84
7.754791736602783,-4.53,-0.39,1.7,4.85
7.768712997436523,-4.85,-1.5,1.15,5.2
7.77567982673645,-4.89,-2.62,0.79,5.6
7.784822940826416,-5.14,-3.71,0.64,6.37
7.796810865402222,-5.17,-4.67,0.66,6.99
7.804877758026123,-4.97,-5.82,0.7,7.68
7.818816661834717,-4.38,-6.88,0.68,8.18
7.826121807098389,-3.58,-7.86,0.65,8.66
7.834842681884766,-3.05,-8.64,0.87,9.2
7.846721887588501,-2.75,-9.24,1.19,9.71
7.8549418449401855,-2.46,-9.8,1.36,10.19
7.868776798248291,-2.35,-10.28,1.4,10.63
7.875710964202881,-2.55,-10.54,1.51,10.94
7.8848557472229,-2.62,-10.68,1.42,11.08
7.896833896636963,-2.53,-10.75,1.32,11.12
7.9048988819122314,-2.68,-10.8,1.25,11.19
7.91875696182251,-2.72,-10.71,1.28,11.12
7.926033973693848,-2.47,-10.61,1.28,10.96
7.934913873672485,-2.14,-10.52,1.13,10.79
7.9467549324035645,-1.97,-10.47,0.93,10.69
7.954770803451538,-1.99,-10.27,0.89,10.49
7.969545841217041,-2.05,-10.14,0.78,10.37
7.976085662841797,-2.14,-10.08,0.64,10.32
7.984925746917725,-2.36,-9.86,0.7,10.16
7.996883869171143,-2.53,-9.51,0.83,9.87
8.004926681518555,-2.48,-9.32,0.85,9.68
8.018937826156616,-2.23,-9.14,0.78,9.44
8.026135921478271,-1.56,-8.91,0.55,9.06
8.034923791885376,-1.48,-8.72,0.27,8.84
8.046989917755127,-1.89,-8.41,0.19,8.62
8.054979801177979,-2.02,-7.99,0.14,8.24
8.068513870239258,-2.32,-7.67,-0.09,8.01
8.076196670532227,-2.12,-7.31,-0.33,7.61
8.084964752197266,-1.73,-7.09,-0.78,7.33
8.097286701202393,-1.24,-7.04,-1.23,7.25
8.105002880096436,-0.7,-6.97,-1.67,7.2
8.11836576461792,-0.77,-6.91,-1.85,7.19
8.126072883605957,-1.33,-6.7,-1.55,7.0
8.134943962097168,-2.49,-6.45,-0.87,6.96
8.14700984954834,-3.51,-6.13,-0.18,7.06
8.154900789260864,-3.87,-5.7,0.6,6.91
8.168232917785645,-3.61,-5.03,1.6,6.39
8.176054000854492,-2.93,-4.62,2.08,5.85
8.184940814971924,-2.07,-4.52,2.12,5.4
8.196817874908447,-1.3,-4.45,1.68,4.93
8.204978942871094,-0.76,-4.1,0.93,4.27
8.218878746032715,-1.17,-3.54,0.78,3.8
8.22618293762207,-2.5,-2.49,1.06,3.68
8.23525094985962,-3.59,-1.55,1.59,4.22
8.247309684753418,-4.26,-0.58,1.6,4.58
8.255212783813477,-4.34,0.76,1.33,4.6
8.268420696258545,-3.66,1.97,0.91,4.25
8.27607774734497,-3.52,2.73,0.13,4.45
8.284979820251465,-3.38,3.64,-0.28,4.97
8.297313690185547,-2.94,4.54,-0.2,5.41
8.305209875106812,-2.86,5.42,0.63,6.16
8.318658828735352,-3.17,6.76,1.79,7.67
8.32617998123169,-4.16,7.94,2.76,9.37
8.335031986236572,-5.22,8.82,3.26,10.75
8.347465991973877,-5.18,9.58,3.05,11.3
8.355209827423096,-4.24,9.79,2.26,10.9
8.368698835372925,-3.29,9.61,1.33,10.24
8.376149654388428,-2.77,9.36,0.99,9.81
8.385037899017334,-2.52,9.13,1.49,9.58
8.396979808807373,-2.64,8.87,2.4,9.56
8.405133724212646,-2.49,8.75,3.07,9.6
8.418186664581299,-2.1,8.72,3.31,9.56
8.426019668579102,-1.63,8.57,2.94,9.2
8.435118675231934,-1.15,8.3,2.06,8.62
8.446836948394775,-0.82,7.97,1.05,8.08
8.455174922943115,-0.78,7.73,0.43,7.78
8.468360900878906,-0.46,7.54,-0.05,7.55
8.47665786743164,-0.13,7.3,-0.7,7.33
8.485111713409424,-0.26,7.05,-1.34,7.18
8.496676921844482,-0.24,6.87,-1.78,7.1
8.505183696746826,-0.05,6.71,-1.73,6.92
8.518456935882568,0.02,6.57,-1.37,6.71
8.526061773300171,-0.15,6.5,-0.85,6.55
8.535095691680908,-0.32,6.64,-0.42,6.66
8.546881675720215,-0.35,6.95,-0.17,6.96
8.555079936981201,-0.39,7.52,-0.13,7.53
8.568190813064575,-1.03,8.18,0.02,8.24
8.575987815856934,-2.17,8.92,0.6,9.19
8.58507776260376,-2.8,9.58,1.26,10.06
8.59660291671753,-3.06,10.1,1.85,10.71
8.605281829833984,-3.44,10.24,2.43,11.07
8.61829686164856,-3.63,10.18,2.56,11.1
8.626358985900879,-3.53,9.74,2.34,10.62
8.635190963745117,-3.15,9.26,1.97,9.97
8.647004842758179,-2.83,8.95,1.76,9.55
8.655279874801636,-3.26,8.63,1.58,9.35
8.668190002441406,-4.35,8.2,2.0,9.49
8.676426887512207,-5.49,7.59,2.64,9.73
8.685131788253784,-6.04,6.52,2.76,9.3
8.696886777877808,-6.11,5.05,2.82,8.41
8.70534372329712,-5.6,3.73,2.81,7.29
8.718401908874512,-4.99,2.5,2.27,6.02
8.726545810699463,-4.91,1.04,1.54,5.24
8.73535966873169,-5.43,-0.24,1.05,5.53
8.746581792831421,-5.77,-1.19,0.88,5.95
8.755255699157715,-5.46,-2.21,0.5,5.91
8.768215656280518,-4.76,-3.32,0.19,5.8
8.776139736175537,-4.24,-4.24,0.2,5.99
8.785335779190063,-3.82,-5.08,0.26,6.36
8.796573877334595,-3.44,-5.98,0.37,6.9
8.80536699295044,-3.23,-6.78,0.68,7.54
8.817949771881104,-3.16,-7.65,1.21,8.36
8.826286792755127,-2.82,-8.34,1.96,9.01
8.835274696350098,-2.4,-8.92,2.45,9.55
8.846665859222412,-2.09,-9.42,2.54,9.97
8.85524582862854,-1.79,-9.76,2.37,10.2
8.867970943450928,-1.5,-9.96,2.0,10.26
8.876210689544678,-1.82,-10.12,1.55,10.39
8.88533067703247,-2.07,-10.15,1.28,10.43
8.896729946136475,-1.8,-10.16,1.11,10.37
8.905486822128296,-1.39,-10.17,0.99,10.31
8.917809963226318,-1.14,-10.21,1.03,10.32
8.92621374130249,-0.85,-10.05,1.19,10.15
8.93520975112915,-0.82,-9.86,1.08,9.95
8.946703910827637,-0.87,-9.84,0.95,9.92
8.955258846282959,-0.64,-9.61,0.98,9.68
8.96775770187378,-0.66,-9.33,0.97,9.4
8.976210832595825,-0.99,-9.04,0.89,9.13
8.985196828842163,-1.04,-8.61,0.77,8.7
8.996586799621582,-0.95,-8.11,0.54,8.18
9.005176782608032,-1.05,-7.84,0.04,7.91
9.017514705657959,-0.95,-7.66,-0.43,7.73
9.02626371383667,-0.38,-7.36,-0.71,7.4
9.035169839859009,-0.07,-7.13,-0.84,7.17
9.04639196395874,-0.31,-6.92,-0.84,6.97
9.055137872695923,-0.34,-6.59,-0.75,6.64
9.067509889602661,-0.28,-6.33,-0.73,6.37
9.076294898986816,-0.61,-6.19,-0.82,6.27
9.085280895233154,-1.12,-5.94,-0.82,6.1
9.096587657928467,-1.29,-5.62,-0.75,5.81
9.105340957641602,-1.49,-5.39,-0.84,5.65
9.117924690246582,-1.62,-5.32,-1.24,5.69
9.126209735870361,-1.42,-5.33,-1.55,5.72
9.135544776916504,-1.0,-5.36,-1.66,5.69
9.146517753601074,-0.48,-5.45,-1.75,5.74
9.155423879623413,-0.2,-5.61,-1.71,5.86
9.167486667633057,-0.49,-5.72,-1.35,5.89
9.176352977752686,-0.97,-5.77,-0.7,5.89
9.185178756713867,-1.44,-5.72,0.15,5.9
9.196733951568604,-1.62,-5.54,0.9,5.84
9.205350875854492,-1.42,-5.31,1.48,5.69
9.217681884765625,-1.42,-4.92,1.99,5.49
9.22618579864502,-1.74,-4.46,2.1,5.22
9.235320806503296,-2.43,-3.92,1.86,4.97
9.246717929840088,-2.99,-3.46,1.52,4.81
9.255376815795898,-2.8,-3.08,1.5,4.42
9.267310857772827,-2.19,-2.48,1.4,3.59
9.276363849639893,-1.72,-1.8,1.3,2.8
9.285196781158447,-1.71,-0.96,1.48,2.45
9.296427726745605,-2.15,-0.05,1.32,2.52
9.305354833602905,-2.56,0.74,0.68,2.75
9.317564964294434,-2.66,1.81,0.21,3.22
9.326300859451294,-2.7,2.85,-0.17,3.92
9.335508823394775,-3.24,3.96,0.06,5.11
9.346637725830078,-4.41,5.36,0.79,6.98
9.355544805526733,-5.17,6.63,1.41,8.52
9.367818832397461,-5.6,7.79,1.86,9.77
9.376376867294312,-6.02,8.65,2.04,10.73
9.385263919830322,-5.8,9.18,1.96,11.03
9.396689891815186,-5.27,9.54,2.2,11.11
9.405340671539307,-4.91,9.79,2.87,11.32
9.417576789855957,-4.58,10.25,3.52,11.76
9.426387786865234,-4.85,10.4,3.98,12.14
9.435626983642578,-4.8,10.57,3.92,12.25
9.446835994720459,-3.96,10.44,3.55,11.71
9.455618858337402,-2.89,9.78,2.97,10.62
9.467544794082642,-1.8,9.24,2.81,9.82
9.476435661315918,-1.3,8.62,2.93,9.19
9.485479831695557,-1.43,8.09,3.0,8.74
9.496859788894653,-1.33,7.73,2.59,8.26
9.50525689125061,-0.92,7.49,1.87,7.77
9.517454862594604,-0.58,7.28,0.99,7.36
9.526433944702148,-0.7,7.06,0.43,7.1
9.535483837127686,-0.81,6.9,0.42,6.96
9.546934843063354,-0.89,6.64,0.73,6.73
9.555639743804932,-0.98,6.42,0.98,6.56
9.567221879959106,-1.24,6.32,1.26,6.56
9.576436996459961,-1.47,6.27,1.35,6.57
9.58540391921997,-1.42,6.4,1.24,6.67
9.596852779388428,-1.37,6.58,1.11,6.81
9.605700969696045,-1.35,6.95,1.06,7.15
9.617482662200928,-1.57,7.47,0.99,7.69
9.626433849334717,-2.26,7.8,0.94,8.17
9.635623931884766,-2.82,8.29,1.06,8.82
9.646710872650146,-3.09,8.87,1.21,9.47
9.65541386604309,-3.89,8.87,1.67,9.82
9.667040824890137,-5.22,8.64,3.06,10.54
9.676403999328613,-6.4,8.48,4.34,11.47
9.6854567527771,-6.42,7.97,3.92,10.95
9.696983814239502,-5.98,7.0,3.1,9.71
9.70545482635498,-5.88,5.71,2.28,8.5
9.717108726501465,-5.79,4.34,1.78,7.45
9.72643780708313,-5.28,3.09,1.85,6.39
9.735545873641968,-4.49,2.17,1.94,5.35
9.747033834457397,-4.42,0.75,1.87,4.85
9.755711793899536,-4.41,-0.67,1.84,4.82
9.7672598361969,-4.76,-1.75,2.15,5.5
9.776957988739014,-5.2,-2.84,2.18,6.31
9.785455703735352,-5.05,-3.96,1.9,6.69
9.796992778778076,-4.7,-4.99,1.86,7.1
9.805585861206055,-3.94,-5.81,1.7,7.22
9.817003726959229,-2.98,-6.44,1.14,7.18
9.826923847198486,-2.3,-7.14,0.5,7.51
9.835694789886475,-1.74,-7.88,0.03,8.06
9.846906661987305,-1.31,-8.44,-0.07,8.54
9.855587005615234,-1.08,-8.75,0.29,8.82
9.86717700958252,-1.11,-9.08,0.75,9.17
9.877058982849121,-1.04,-9.25,0.92,9.35
9.88560676574707,-1.0,-9.42,1.14,9.54
9.897050857543945,-0.76,-9.38,1.05,9.46
9.905630826950073,-0.2,-9.24,0.66,9.26
9.917218685150146,0.3,-9.18,0.19,9.18
9.92694878578186,0.49,-9.09,-0.34,9.1
9.93576192855835,0.53,-8.84,-0.63,8.87
9.946865797042847,0.31,-8.5,-0.92,8.55
9.955658912658691,-0.12,-8.2,-1.13,8.27
9.96730089187622,-0.83,-7.93,-1.16,8.05
9.9770348072052,-1.49,-7.57,-1.0,7.77
9.985576868057251,-1.82,-7.19,-0.83,7.46
9.99715781211853,-1.78,-7.13,-0.76,7.38
10.005829811096191,-1.54,-7.36,-0.77,7.55
10.017643928527832,-0.95,-7.35,-0.62,7.43
10.027122974395752,-0.48,-7.38,-0.3,7.4
10.035765886306763,-0.31,-7.51,0.03,7.51
10.04714298248291,-0.33,-7.41,0.46,7.43
10.05591869354248,-0.61,-7.15,0.8,7.22
10.067712783813477,-1.11,-6.88,0.83,7.01
10.077070713043213,-1.68,-6.59,0.75,6.84
10.085729837417603,-1.93,-6.16,0.51,6.47
10.097237825393677,-1.84,-5.77,-0.07,6.05
10.105827808380127,-1.42,-5.64,-0.76,5.86
10.117252826690674,-0.91,-5.76,-1.13,5.93
10.127075672149658,-0.56,-5.88,-1.08,6.0
10.135783672332764,-0.2,-5.99,-0.88,6.05
10.147114753723145,0.14,-6.12,-0.41,6.13
10.155698776245117,-0.09,-6.2,0.25,6.2
10.166956901550293,-1.05,-6.1,0.84,6.24
10.177227973937988,-2.0,-5.82,1.21,6.27
10.185609817504883,-2.53,-5.51,1.22,6.18
10.197122812271118,-1.95,-5.12,0.71,5.52
10.205755710601807,-0.95,-4.72,-0.21,4.81
10.217171669006348,-0.61,-4.48,-0.99,4.62
10.227060794830322,-0.83,-4.47,-1.31,4.73
10.2358717918396,-1.22,-4.49,-0.67,4.7
10.247203826904297,-1.52,-4.09,0.4,4.38
10.255769729614258,-1.54,-3.83,1.2,4.29
10.267319679260254,-1.62,-3.68,1.75,4.38
10.277281761169434,-1.86,-3.19,1.94,4.17
10.285789966583252,-2.19,-2.51,1.76,3.76
10.297118663787842,-1.87,-1.51,0.82,2.53
10.305815696716309,-1.42,-0.45,-0.96,1.77
10.31713581085205,-1.52,0.15,-2.68,3.08
10.327125787734985,-2.04,0.67,-3.8,4.36
10.335914850234985,-2.45,1.52,-3.49,4.52
10.347189903259277,-3.52,1.82,-2.58,4.72
10.355814933776855,-4.15,2.84,-0.76,5.08
10.367483854293823,-4.37,3.85,0.78,5.87
10.377316951751709,-4.48,4.67,1.36,6.61
10.38583779335022,-4.53,5.61,1.75,7.41
10.397227764129639,-4.35,6.57,2.25,8.19
10.405900955200195,-3.98,7.3,3.69,9.09
10.417999744415283,-3.72,7.95,5.39,10.3
10.427146911621094,-3.88,8.51,6.23,11.23
10.435913801193237,-4.15,8.83,6.27,11.59
10.447227001190186,-3.94,9.25,5.26,11.34
10.455894947052002,-3.62,9.5,3.45,10.73
10.467231750488281,-3.3,9.47,2.2,10.26
10.477357864379883,-2.87,9.29,1.44,9.82
10.485949993133545,-2.59,8.97,1.04,9.39
10.497244834899902,-2.39,8.68,1.48,9.12
10.50589370727539,-1.72,8.27,1.88,8.65
10.517283916473389,-0.96,7.9,1.83,8.16
10.52731990814209,-0.48,7.59,1.76,7.8
10.535927772521973,-0.31,7.34,1.96,7.6
10.54723072052002,-0.39,7.15,2.07,7.45
10.555927753448486,-0.36,7.0,1.54,7.17
10.567720890045166,-0.65,7.01,0.95,7.1
10.577415943145752,-1.27,7.39,0.57,7.51
10.586050987243652,-1.75,7.94,0.34,8.13
10.597332954406738,-1.74,8.34,0.45,8.53
10.606029987335205,-1.79,8.64,0.83,8.86
10.617716789245605,-2.05,8.89,1.41,9.23
10.62778091430664,-2.38,9.19,2.37,9.78
10.636024951934814,-2.97,9.58,3.31,10.56
10.647318840026855,-3.93,9.9,3.87,11.33
10.656011819839478,-4.38,9.82,3.95,11.45
10.667779922485352,-4.47,9.49,3.87,11.18
10.677756786346436,-4.05,9.13,3.48,10.57
10.685985803604126,-4.05,8.82,3.06,10.17
10.697308778762817,-4.77,8.33,3.22,10.12
10.706069946289062,-4.78,7.73,3.88,9.88
10.717803955078125,-5.34,6.92,4.73,9.93
10.727754831314087,-6.28,5.73,5.36,10.04
10.736073970794678,-6.32,4.51,5.18,9.33
10.747501850128174,-6.06,3.28,4.01,7.97
10.756136894226074,-6.08,1.73,2.55,6.81
10.767308712005615,-5.92,0.24,1.63,6.14
10.777578830718994,-5.62,-1.02,0.85,5.77
10.785923957824707,-4.99,-2.08,0.36,5.41
10.797470808029175,-4.46,-3.64,0.14,5.75
10.806107997894287,-4.6,-5.68,-0.35,7.31
10.817495822906494,-4.23,-6.28,-0.14,7.57
10.827516794204712,-3.83,-6.67,0.56,7.71
10.836083889007568,-3.76,-7.53,0.87,8.46
10.847445964813232,-3.59,-8.45,1.12,9.24
10.856086730957031,-3.12,-9.38,1.17,9.95
10.867514848709106,-1.72,-9.38,1.43,9.64
10.8777437210083,-1.15,-9.98,1.48,10.15
10.886093854904175,-0.77,-10.11,1.29,10.22
10.897427797317505,-0.7,-10.15,1.12,10.23
10.9060378074646,-0.99,-10.08,0.88,10.16
10.917645931243896,-1.61,-9.94,0.69,10.09
10.927893877029419,-2.2,-9.73,0.5,9.98
10.936296939849854,-2.36,-9.57,0.34,9.86
10.947420835494995,-2.16,-9.53,0.36,9.77
10.956106662750244,-1.93,-9.58,0.49,9.78
10.966943740844727,-1.64,-9.58,0.7,9.74
10.977460861206055,-1.49,-9.56,0.83,9.71
10.985994815826416,-1.58,-9.6,0.91,9.77
10.997428894042969,-1.58,-9.53,0.99,9.71
11.00625467300415,-1.4,-9.39,0.93,9.53
11.0174880027771,-1.17,-9.41,0.69,9.5
11.027474880218506,-1.04,-9.41,0.45,9.47
11.036321878433228,-1.02,-9.26,0.23,9.31
11.04741382598877,-0.87,-9.04,0.14,9.08
11.056131839752197,-0.84,-8.89,0.06,8.92
11.067542791366577,-0.98,-8.71,-0.01,8.76
11.077674865722656,-0.95,-8.5,-0.16,8.55
11.086158752441406,-0.87,-8.35,-0.41,8.4
11.09744381904602,-1.15,-8.28,-0.71,8.38
11.106081008911133,-1.57,-8.16,-0.83,8.35
11.11673879623413,-1.93,-8.0,-0.87,8.27
11.127562999725342,-2.01,-7.82,-0.71,8.1
11.136225700378418,-2.33,-8.1,-0.35,8.43
11.147544860839844,-2.72,-7.98,-0.32,8.43
11.156181812286377,-3.26,-7.52,0.34,8.2
11.167165756225586,-3.51,-6.96,0.64,7.82
11.17773985862732,-2.81,-6.47,0.02,7.05
11.18599796295166,-1.95,-6.19,-0.45,6.5
11.197381973266602,-1.66,-5.74,-0.54,5.99
11.206116676330566,-1.84,-5.23,-0.58,5.57
11.216500759124756,-2.65,-4.79,0.0,5.47
11.227245807647705,-4.08,-4.38,0.65,6.02
11.23612380027771,-4.33,-3.62,1.15,5.75
11.247167825698853,-3.64,-2.79,1.24,4.75
11.256107807159424,-2.55,-1.92,1.04,3.35
11.266389846801758,-2.46,-1.56,0.68,2.99
11.27747392654419,-2.95,-1.03,0.88,3.24
11.286073684692383,-3.62,-0.39,1.67,4.0
11.29731273651123,-4.24,0.47,2.45,4.91
11.30623197555542,-4.28,1.43,2.88,5.35
11.316423892974854,-3.4,2.71,3.01,5.28
11.327680826187134,-2.73,3.96,2.08,5.24
11.336118698120117,-2.92,4.86,0.75,5.71
11.347285747528076,-3.57,5.73,0.03,6.75
11.356116771697998,-4.36,6.59,0.07,7.9
11.366206884384155,-5.05,7.86,1.11,9.4
11.377640724182129,-5.2,9.17,1.96,10.72
11.38615369796753,-5.06,10.36,2.12,11.72
11.397410869598389,-5.09,11.63,2.24,12.89
11.406473875045776,-6.1,12.41,2.17,13.99
11.416497707366943,-6.9,13.36,2.39,15.22
11.42733383178711,-6.01,14.28,2.8,15.74
11.436596870422363,-4.79,14.22,2.97,15.29
11.448030948638916,-3.63,13.7,2.84,14.45
11.456483840942383,-2.31,13.55,2.89,14.04
11.46613073348999,-1.58,13.75,3.16,14.19
11.477372884750366,-1.91,13.72,3.55,14.29
11.486218929290771,-2.83,12.66,3.47,13.42
11.49739384651184,-2.02,10.67,2.51,11.14
11.506258010864258,0.38,9.06,1.48,9.18
11.516092777252197,1.51,8.01,1.16,8.23
11.527349948883057,0.83,7.59,1.48,7.77
11.536267757415771,-0.36,7.48,2.0,7.75
11.54741883277893,-1.16,7.27,2.14,7.66
11.556359767913818,-1.25,7.16,1.73,7.47
11.566281795501709,-1.45,7.23,1.35,7.49
11.577341794967651,-2.23,7.42,1.18,7.83
11.5862398147583,-3.14,7.82,1.15,8.5
11.59758996963501,-3.51,8.08,1.26,8.89
11.606571674346924,-3.7,8.22,1.73,9.17
11.616957664489746,-4.16,8.43,2.81,9.81
11.627470970153809,-4.6,8.36,3.62,10.2
11.636441707611084,-4.56,7.99,4.03,10.04
11.647517681121826,-4.48,7.82,4.32,9.99
11.65637493133545,-5.22,7.52,4.77,10.32
11.666258811950684,-5.99,7.13,5.18,10.65
11.677397727966309,-7.02,7.0,5.35,11.26
11.686461925506592,-7.93,6.46,4.67,11.24
11.697603702545166,-8.07,5.34,3.93,10.44
11.706474781036377,-7.73,3.95,3.67,9.42
11.716241836547852,-7.48,2.15,3.87,8.69
11.727195739746094,-7.09,0.14,4.03,8.15
11.73642873764038,-6.43,-1.86,3.88,7.73
11.74762773513794,-5.82,-3.67,3.48,7.71
11.756411790847778,-5.43,-5.21,2.91,8.06
11.766222953796387,-5.03,-6.54,2.12,8.51
11.77723479270935,-4.52,-7.71,1.22,9.02
11.786303997039795,-4.02,-8.73,0.42,9.62
11.797560691833496,-3.65,-9.5,-0.24,10.17
11.806471824645996,-3.46,-10.07,-0.57,10.66
11.81636095046997,-3.13,-10.44,-0.77,10.92
11.82713794708252,-2.72,-10.76,-0.97,11.14
11.836376667022705,-2.29,-11.02,-0.89,11.29
11.847627878189087,-1.63,-11.12,-0.64,11.25
11.856490850448608,-1.07,-11.25,-0.57,11.31
11.866228818893433,-1.21,-11.38,-0.29,11.44
11.876977920532227,-1.5,-11.23,0.33,11.33
11.886405944824219,-1.55,-11.07,0.65,11.19
11.8975830078125,-1.6,-11.04,0.6,11.17
11.906540870666504,-1.76,-10.97,0.42,11.11
11.916412830352783,-1.99,-10.75,0.16,10.93
11.927148818969727,-2.1,-10.54,-0.2,10.74
11.936429977416992,-2.13,-10.33,-0.55,10.56
11.947717666625977,-2.14,-10.14,-0.83,10.39
11.956363677978516,-2.17,-9.93,-0.78,10.19
11.96634292602539,-1.84,-9.71,-0.6,9.9
11.977078914642334,-1.26,-9.65,-0.5,9.74
11.986472845077515,-1.04,-9.58,-0.04,9.63
11.997641801834106,-0.95,-9.22,0.56,9.28
12.006524801254272,-1.04,-8.95,0.87,9.05
12.016355991363525,-1.23,-8.66,0.87,8.79
12.027105808258057,-1.02,-8.16,0.57,8.24
12.036413669586182,-0.95,-7.8,-0.02,7.85
12.047611713409424,-1.33,-7.61,-0.71,7.75
12.056483745574951,-2.03,-7.11,-1.15,7.48
12.066303730010986,-2.34,-6.47,-1.57,7.05
12.077093839645386,-2.17,-6.23,-1.97,6.88
12.086543798446655,-2.06,-6.09,-1.71,6.65
12.097838878631592,-2.17,-5.9,-0.89,6.34
12.106510877609253,-2.35,-5.69,-0.07,6.15
12.116413831710815,-2.28,-5.53,0.54,6.0
12.127184867858887,-1.95,-5.4,0.98,5.82
12.136582851409912,-1.64,-5.46,1.06,5.79
12.14772367477417,-1.61,-5.65,0.95,5.95
12.156612873077393,-1.96,-5.58,0.83,5.97
12.166308879852295,-2.46,-5.16,0.61,5.74
12.177221775054932,-3.18,-4.74,0.34,5.71
12.18658185005188,-3.17,-3.99,0.44,5.11
12.197676658630371,-2.4,-2.88,0.53,3.78
12.206555843353271,-2.0,-2.42,0.13,3.14
12.216408729553223,-1.77,-2.36,0.34,2.96
12.227301836013794,-1.59,-1.89,1.19,2.74
12.236544847488403,-2.26,-1.32,2.28,3.47
12.24767279624939,-3.11,-0.4,3.26,4.52
12.256496906280518,-3.76,0.76,3.44,5.15
12.26682996749878,-4.32,2.33,3.42,5.98
12.277146816253662,-4.19,4.39,3.67,7.09
12.286650657653809,-4.25,6.1,3.91,8.4
12.297700881958008,-4.56,7.73,3.85,9.76
12.306638717651367,-5.65,8.95,3.9,11.27
12.317157745361328,-6.39,9.92,4.02,12.46
12.327560901641846,-6.9,10.7,3.66,13.24
12.337057828903198,-6.94,11.16,3.21,13.52
12.347787857055664,-5.65,11.12,2.58,12.73
12.356546878814697,-3.94,10.58,1.77,11.42
12.366562843322754,-3.04,10.05,1.49,10.6
12.377371788024902,-2.87,9.78,1.41,10.28
12.386676788330078,-2.66,9.74,0.91,10.13
12.39777684211731,-2.16,9.6,0.16,9.84
12.406713008880615,-1.58,9.46,-0.64,9.61
12.417111873626709,-1.45,9.19,-1.09,9.36
12.427406787872314,-1.4,8.84,-1.17,9.02
12.436641693115234,-0.92,8.53,-1.2,8.66
12.447981834411621,-0.53,7.98,-1.25,8.09
12.456624984741211,-0.7,7.6,-0.78,7.67
12.466668844223022,-1.19,7.85,0.15,7.94
12.4774808883667,-2.11,8.17,0.93,8.48
12.486745834350586,-2.66,8.58,1.24,9.06
12.497737884521484,-2.83,9.2,1.22,9.7
12.506685733795166,-3.15,9.77,1.13,10.32
12.516544818878174,-3.82,10.23,1.15,10.98
12.527482986450195,-4.62,10.51,1.78,11.61
12.536674976348877,-5.08,10.59,2.69,12.04
12.547922849655151,-4.89,10.47,3.09,11.96
12.556751728057861,-5.03,10.13,3.28,11.77
12.566818714141846,-5.31,9.96,3.37,11.77
12.577528953552246,-5.51,9.59,3.31,11.54
12.586808681488037,-5.49,8.8,3.35,10.89
12.597898960113525,-5.24,7.97,3.45,10.14
12.606790781021118,-5.12,6.94,3.44,9.28
12.616878986358643,-5.09,5.75,3.58,8.47
12.62760591506958,-5.2,4.57,3.83,7.91
12.63673186302185,-4.93,3.57,3.89,7.22
12.647945880889893,-4.65,2.62,4.03,6.68
12.656795978546143,-4.85,1.6,4.3,6.67
12.666512966156006,-5.09,0.52,4.28,6.67
12.67756175994873,-4.98,-0.33,3.82,6.28
12.68669080734253,-4.82,-1.19,3.05,5.82
12.697956800460815,-4.49,-2.03,2.19,5.39
12.706697940826416,-4.23,-2.86,1.41,5.29
12.716650009155273,-4.08,-3.64,0.92,5.54
12.727628707885742,-4.22,-4.4,0.93,6.16
12.736742973327637,-4.77,-5.15,1.18,7.11
12.747885704040527,-4.64,-5.89,1.11,7.57
12.756783962249756,-3.78,-6.63,0.96,7.69
12.766799926757812,-2.86,-7.33,0.83,7.91
12.777641773223877,-2.49,-7.89,0.97,8.33
12.786796808242798,-2.51,-8.26,1.56,8.77
12.797983884811401,-2.45,-8.6,1.98,9.15
12.806854724884033,-2.24,-9.03,1.9,9.49
12.816673755645752,-1.96,-9.42,1.6,9.75
12.827684879302979,-1.54,-9.55,1.14,9.74
12.836655855178833,-1.08,-9.66,0.65,9.74
12.847944736480713,-0.81,-9.83,0.36,9.86
12.85677194595337,-0.73,-9.91,0.34,9.94
12.866620779037476,-0.86,-9.86,0.53,9.91
12.877712726593018,-1.03,-9.87,0.89,9.96
12.886775970458984,-1.2,-9.86,1.24,10.0
12.89778470993042,-1.32,-9.84,1.44,10.03
12.90689468383789,-1.26,-9.76,1.42,9.94
12.916790962219238,-1.18,-9.72,1.17,9.86
12.927791833877563,-1.25,-9.75,0.99,9.87
12.936777830123901,-1.36,-9.7,0.85,9.83
12.947826862335205,-1.35,-9.6,0.64,9.71
12.956708908081055,-1.09,-9.49,0.35,9.55
12.966669797897339,-0.92,-9.44,0.05,9.48
12.97772479057312,-1.08,-9.32,-0.03,9.38
12.986757755279541,-1.21,-9.0,0.14,9.08
12.998098850250244,-1.48,-8.83,0.28,8.95
13.006839752197266,-1.8,-8.57,0.61,8.77
13.016875743865967,-1.63,-8.14,0.88,8.34
13.027737855911255,-1.02,-7.88,0.58,7.96
13.036887884140015,-0.57,-7.81,0.07,7.83
13.047810792922974,-0.41,-7.64,-0.32,7.65
13.056798934936523,-0.42,-7.41,-0.73,7.45
13.066770792007446,-0.83,-7.23,-0.97,7.34
13.077850818634033,-1.99,-6.96,-0.79,7.28
13.086788654327393,-2.49,-6.54,-0.52,7.01
13.09810185432434,-2.25,-6.05,-0.42,6.46
13.106925010681152,-2.86,-5.59,-0.45,6.29
13.116927862167358,-3.3,-4.91,-0.23,5.92
13.127916812896729,-2.6,-4.42,-0.11,5.12
13.136941909790039,-1.56,-4.22,-0.21,4.5
13.147969722747803,-0.96,-4.08,-0.16,4.19
13.156984806060791,-1.21,-3.81,0.2,4.0
13.166903972625732,-1.91,-3.17,0.99,3.83
13.177750825881958,-2.57,-2.25,1.71,3.81
13.186826705932617,-3.19,-1.44,2.05,4.05
13.198004722595215,-4.08,-0.56,2.27,4.7
13.206909656524658,-4.27,0.28,2.2,4.81
13.216920852661133,-4.0,0.92,1.82,4.48
13.227828979492188,-3.88,1.73,1.37,4.46
13.236914873123169,-3.99,2.2,0.85,4.63
13.248166799545288,-4.18,2.81,0.94,5.12
13.257032871246338,-3.99,3.88,1.13,5.67
13.266849994659424,-3.54,4.72,1.08,5.99
13.277848720550537,-3.53,5.61,1.25,6.74
13.28841781616211,-4.18,6.34,2.06,7.86
13.297908782958984,-5.3,7.03,3.44,9.45
13.30709171295166,-5.77,8.04,4.48,10.86
13.317201852798462,-4.61,8.81,4.3,10.83
13.327900886535645,-3.36,8.96,2.88,9.99
13.336887836456299,-2.77,9.22,1.7,9.77
13.348631858825684,-2.81,9.67,1.05,10.12
13.356947898864746,-3.44,9.97,0.64,10.56
13.366772890090942,-3.64,10.24,0.65,10.88
13.377988815307617,-2.84,10.11,0.63,10.52
13.386911869049072,-1.79,9.42,0.78,9.62
13.398205757141113,-0.95,8.89,1.37,9.04
13.407004833221436,-0.5,8.41,2.0,8.65
13.41682767868042,0.0,7.99,2.42,8.34
13.42785382270813,0.63,7.74,2.23,8.07
13.436969757080078,0.85,7.63,1.71,7.86
13.44825792312622,0.67,7.58,1.3,7.71
13.457659721374512,0.27,7.44,1.16,7.53
13.467114925384521,-0.18,7.31,1.3,7.42
13.483444690704346,-0.77,7.38,1.59,7.58
13.486944675445557,-1.26,7.49,1.76,7.79
13.4980947971344,-1.13,7.78,1.87,8.08
13.506937980651855,-0.99,8.16,1.66,8.38
13.516965866088867,-1.17,8.56,1.77,8.81
13.527975797653198,-1.57,8.84,2.08,9.21
13.53708267211914,-1.87,9.05,2.31,9.52
13.548332691192627,-2.05,9.06,2.29,9.56
13.556970834732056,-2.52,8.99,2.23,9.59
13.56691598892212,-3.73,9.06,2.47,10.1
13.577919960021973,-5.01,9.09,2.66,10.71
13.586965799331665,-5.25,8.94,2.49,10.66
13.598532676696777,-5.04,8.53,2.02,10.11
13.607726812362671,-5.07,7.91,2.03,9.61
13.617127895355225,-5.26,7.07,2.54,9.17
13.633338928222656,-5.44,6.19,3.21,8.84
13.63701581954956,-5.6,5.15,3.85,8.52
13.648077011108398,-5.65,4.0,4.43,8.21
13.657473802566528,-6.16,3.02,4.81,8.37
13.667040824890137,-6.21,1.84,4.46,7.86
13.683019876480103,-5.75,0.58,4.06,7.06
13.687054872512817,-5.44,-0.56,3.68,6.59
13.698202848434448,-5.46,-1.64,3.24,6.55
13.70749568939209,-5.19,-2.57,2.85,6.45
13.71721076965332,-4.68,-3.55,2.24,6.28
13.73308277130127,-3.97,-4.44,1.41,6.12
13.737109661102295,-3.36,-5.32,0.62,6.32
13.748118877410889,-3.14,-6.16,0.21,6.91
13.757661819458008,-2.92,-6.74,0.19,7.34
13.767115831375122,-2.5,-7.25,0.14,7.67
13.782983779907227,-2.44,-7.66,0.45,8.05
13.787068843841553,-2.39,-7.92,0.6,8.29
13.798255920410156,-2.21,-8.28,0.48,8.58
13.807590961456299,-2.05,-8.71,0.38,8.95
13.817267894744873,-2.15,-9.03,0.56,9.29
13.833353996276855,-2.05,-9.08,0.98,9.35
13.837214946746826,-1.7,-9.2,1.15,9.42
13.848245859146118,-1.26,-9.43,1.08,9.57
13.857508659362793,-0.98,-9.53,0.93,9.62
13.867219924926758,-0.83,-9.54,0.67,9.59
13.883105754852295,-0.71,-9.4,0.42,9.43
13.887052774429321,-0.98,-9.4,0.08,9.45
13.898175716400146,-1.1,-9.3,-0.22,9.36
13.907601833343506,-1.23,-9.34,-0.39,9.42
13.917321681976318,-1.5,-9.31,-0.27,9.43
13.933405876159668,-1.71,-9.26,-0.04,9.41
13.93718671798706,-1.89,-9.3,0.1,9.49
13.948476791381836,-2.06,-9.36,0.02,9.58
13.957780838012695,-1.67,-9.38,-0.34,9.53
13.96724271774292,-1.1,-9.38,-0.73,9.47
13.983450889587402,-1.07,-9.4,-0.98,9.51
13.987334728240967,-1.22,-9.28,-0.67,9.38
13.998541831970215,-1.03,-9.11,-0.48,9.18
14.007774829864502,-0.87,-9.13,-0.4,9.18
14.017295837402344,-1.21,-8.9,0.04,8.98
14.033506870269775,-1.67,-8.15,0.64,8.34
14.037340879440308,-2.98,-8.83,0.24,9.32
14.048552989959717,-2.74,-7.83,-0.21,8.29
14.057652950286865,-2.39,-7.59,-0.22,7.96
14.067251682281494,-2.17,-7.47,-0.76,7.81
14.084016799926758,-1.77,-7.34,-0.74,7.58
14.08721399307251,-0.98,-7.32,-0.72,7.42
14.098625659942627,-0.2,-7.53,-0.77,7.57
14.107714891433716,0.04,-7.56,-0.29,7.56
14.117400884628296,-0.39,-7.43,0.47,7.45
14.134163856506348,-1.03,-7.19,1.17,7.35
14.13737678527832,-2.4,-6.64,1.96,7.32
14.148705959320068,-3.89,-5.65,2.95,7.46
14.15762996673584,-4.65,-4.55,3.49,7.38
14.167273998260498,-4.41,-3.63,3.1,6.49
14.184056758880615,-3.36,-3.1,2.12,5.03
14.187158823013306,-2.27,-2.49,0.85,3.47
14.198476791381836,-2.0,-1.72,0.12,2.64
14.207695960998535,-2.85,-1.27,0.01,3.12
14.217386722564697,-3.88,-0.42,0.58,3.94
14.233520984649658,-4.93,0.81,1.91,5.34
14.237340927124023,-5.6,2.18,2.84,6.64
14.248508930206299,-5.54,3.87,3.0,7.39
14.257763862609863,-5.13,5.71,2.13,7.96
14.267429828643799,-5.49,7.4,0.33,9.22
14.283723831176758,-6.5,8.67,-0.55,10.84
14.287312984466553,-7.13,10.02,-0.46,12.3
14.29924988746643,-7.59,10.91,0.52,13.3
14.307624816894531,-7.17,11.56,2.32,13.79
14.31804895401001,-6.25,12.16,3.63,14.14
14.333050727844238,-5.81,12.54,4.17,14.43
14.337709903717041,-5.75,12.36,3.62,14.1
14.348925828933716,-4.69,11.93,2.2,13.0
14.357736825942993,-3.41,11.11,0.99,11.66
14.36728286743164,-2.44,10.07,-0.05,10.36
14.382723808288574,-1.63,8.97,-0.64,9.13
14.38728380203247,-1.34,7.77,-0.64,7.91
14.398408889770508,-1.02,6.73,-0.21,6.81
14.407582759857178,-0.21,5.75,0.51,5.77
14.417523860931396,0.75,4.96,1.02,5.11
14.43313980102539,1.82,4.34,1.15,4.84
14.437405824661255,1.99,3.92,1.08,4.52
14.448481798171997,1.13,3.93,1.08,4.22
14.45761489868164,0.42,4.17,0.84,4.27
14.467381000518799,0.38,4.11,0.16,4.13
14.48326587677002,0.68,3.88,-0.38,3.95
14.487281799316406,0.82,3.73,-0.67,3.87
14.498548984527588,0.52,3.71,-0.47,3.77
14.50756287574768,0.01,3.88,0.22,3.88
14.517569780349731,-0.55,4.27,0.93,4.4
14.532896995544434,-0.94,4.89,1.19,5.11
14.537469863891602,-1.3,5.61,0.94,5.83
14.5484778881073,-1.63,6.47,0.63,6.7
14.557718753814697,-2.3,7.47,0.59,7.83
14.56750774383545,-2.8,8.89,0.46,9.33
14.583280801773071,-3.42,9.94,0.31,10.51
14.58748197555542,-4.15,10.52,0.64,11.32
14.599142789840698,-4.65,10.89,1.44,11.92
14.607680797576904,-4.95,11.17,2.13,12.4
14.61834192276001,-4.83,10.97,2.62,12.26
14.632506847381592,-4.66,10.59,3.09,11.97
14.637470722198486,-5.32,9.93,3.37,11.75
14.648652791976929,-5.5,8.98,3.38,11.05
14.657473802566528,-5.6,7.95,3.51,10.33
14.667479991912842,-5.88,6.49,3.15,9.3
14.682762861251831,-5.31,5.05,2.79,7.84
14.687453746795654,-4.5,3.76,2.58,6.4
14.698608875274658,-4.11,2.28,2.36,5.25
14.707612991333008,-3.71,1.01,2.6,4.64
14.717602729797363,-3.69,0.04,2.98,4.74
14.733155727386475,-5.04,-1.0,3.89,6.44
14.73747181892395,-6.46,-1.8,4.88,8.29
14.748573780059814,-6.26,-2.83,4.62,8.27
14.757584810256958,-5.31,-4.18,3.87,7.78
14.767629861831665,-4.24,-5.33,3.2,7.52
14.783118724822998,-3.27,-6.21,2.6,7.48
14.787481784820557,-2.99,-6.79,2.21,7.74
14.798974990844727,-3.27,-7.08,2.17,8.09
14.807596683502197,-3.23,-7.3,1.96,8.21
14.817757844924927,-3.04,-7.61,1.42,8.31
14.833289861679077,-2.91,-8.02,0.98,8.58
14.837547779083252,-3.28,-8.3,1.22,9.0
14.848851680755615,-3.28,-8.39,1.13,9.07
14.857625007629395,-2.79,-8.69,0.99,9.18
14.86776876449585,-2.51,-9.02,0.91,9.4
14.882699966430664,-2.31,-9.22,0.69,9.52
14.887553691864014,-1.65,-9.2,0.6,9.36
14.898658752441406,-1.34,-9.38,0.53,9.49
14.907561779022217,-1.49,-9.47,0.69,9.61
14.917807817459106,-1.77,-9.25,0.97,9.46
14.932856798171997,-2.06,-9.16,0.96,9.43
14.937678813934326,-2.42,-9.3,0.71,9.63
14.94865083694458,-2.38,-9.31,0.23,9.61
14.957563877105713,-2.03,-9.32,-0.26,9.54
14.967639923095703,-2.04,-9.54,-0.71,9.78
14.982497692108154,-2.12,-9.69,-1.04,9.97
14.987561702728271,-1.78,-9.61,-1.22,9.84
14.998679876327515,-1.17,-9.66,-1.29,9.81
15.007523775100708,-0.7,-9.72,-1.09,9.8
15.017683982849121,-0.68,-9.62,-0.68,9.66
15.032977819442749,-0.5,-9.52,-0.46,9.54
15.037651777267456,-0.39,-9.56,-0.42,9.57
15.048754692077637,-0.62,-9.53,-0.38,9.55
15.057823657989502,-1.08,-9.4,-0.47,9.47
15.067875862121582,-1.35,-9.24,-0.62,9.35
15.082740783691406,-1.24,-9.1,-0.85,9.22
15.087786674499512,-0.77,-8.92,-1.34,9.05
15.098849773406982,-0.2,-8.85,-1.77,9.02
15.107659816741943,0.09,-8.68,-1.71,8.84
15.117790699005127,0.08,-8.56,-1.18,8.64
15.132960796356201,-0.15,-8.45,-0.18,8.45
15.137778759002686,-0.71,-8.23,1.22,8.35
15.148753881454468,-1.3,-7.95,2.45,8.41
15.157728672027588,-2.0,-7.47,3.68,8.56
15.167897701263428,-2.73,-6.9,4.98,8.93
15.182907819747925,-2.56,-5.56,6.22,8.72
15.187804698944092,-1.88,-3.62,7.17,8.24
15.198915958404541,-2.25,-2.02,7.61,8.18
15.207700729370117,-3.38,-0.09,7.42,8.15
15.217882871627808,-4.39,2.08,6.59,8.18
15.232879877090454,-5.39,3.86,5.63,8.69
15.237793922424316,-7.6,5.24,5.51,10.75
15.248744010925293,-10.39,6.48,6.64,13.92
15.257738828659058,-11.22,7.7,7.79,15.68
15.267759799957275,-10.06,8.8,8.45,15.81
15.282922744750977,-8.18,9.35,8.17,14.86
15.287773847579956,-6.39,9.33,7.14,13.37
15.298832893371582,-5.1,8.97,5.51,11.69
15.307769775390625,-4.28,8.25,3.89,10.07
15.317873001098633,-2.79,7.94,3.44,9.09
15.333130836486816,-1.82,7.34,3.39,8.28
15.337724685668945,-1.13,6.89,2.43,7.39
15.348832845687866,-0.47,6.16,1.85,6.44
15.357901811599731,-0.21,5.52,1.35,5.68
15.367835998535156,0.01,4.61,2.63,5.3
15.382934808731079,0.22,4.62,3.67,5.9
15.38777780532837,-0.25,4.71,4.43,6.47
15.39897084236145,-1.09,4.42,5.07,6.81
15.407745838165283,-1.59,4.15,4.7,6.46
15.417888879776001,-1.62,4.24,3.9,5.98
15.433465957641602,-1.83,4.36,3.26,5.74
15.437821865081787,-2.23,4.32,2.69,5.55
15.449001789093018,-2.55,3.76,2.0,4.96
15.458009719848633,-2.16,3.49,1.74,4.45
15.468172788619995,-1.3,3.31,0.85,3.65
15.483927726745605,-0.91,2.87,-0.08,3.01
15.487937927246094,-0.93,2.68,-0.68,2.91
15.499144792556763,-1.62,2.45,-1.13,3.14
15.507677793502808,-3.01,2.55,-0.8,4.02
15.518073797225952,-2.45,2.68,-1.46,3.91
15.532826900482178,-5.62,2.42,-2.61,6.65
15.537872791290283,-2.2,3.66,-1.02,4.39
15.548998832702637,-2.45,1.79,-1.31,3.3
15.55783987045288,-1.05,0.73,-1.3,1.82
15.567861795425415,0.33,0.29,-0.88,0.98
15.582621812820435,0.3,-0.35,-0.65,0.79
15.587825775146484,0.48,-0.61,-0.38,0.86
15.599061965942383,0.48,-0.92,0.16,1.04
15.607996940612793,0.27,-1.17,0.58,1.33
15.618266820907593,0.15,-1.23,0.62,1.38
15.632908821105957,0.15,-1.22,0.17,1.24
15.637887001037598,0.15,-1.14,-0.41,1.22
15.648967742919922,0.2,-0.99,-1.01,1.42
15.657977819442749,0.26,-0.94,-1.32,1.64
15.668110847473145,0.04,-0.79,-1.27,1.49
15.682377815246582,-0.05,-0.55,-1.07,1.2
15.687903881072998,-0.19,-0.45,-0.68,0.83
15.698948860168457,-0.36,-0.57,-0.4,0.78
15.708055973052979,-0.1,-0.35,-0.21,0.42
15.718048810958862,-0.04,-0.36,-0.3,0.47
15.73275089263916,-0.13,-0.38,-0.37,0.54
15.738033771514893,-0.09,-0.33,-0.17,0.38
15.749067783355713,0.11,-0.38,-0.27,0.47
15.757936954498291,0.23,-0.41,-0.4,0.61
15.768265724182129,0.42,-0.36,-0.5,0.74
15.783691883087158,0.58,-0.54,-0.4,0.88
15.7878258228302,0.13,-0.6,-0.56,0.83
15.799126863479614,-0.33,-0.29,-0.49,0.65
15.808547973632812,-0.57,-0.06,-0.41,0.7
15.818144798278809,-0.74,0.05,-0.2,0.76
