time,ax,ay,az,atotal
0.003525972366333008,0.08,-0.14,-0.08,0.18
0.010705947875976562,-0.2,-0.2,-0.12,0.3
0.02114701271057129,0.14,-0.51,-0.19,0.56
0.03125500679016113,0.27,-0.9,-0.18,0.95
0.03995990753173828,-0.21,-1.06,-0.18,1.09
0.05246901512145996,-0.46,-1.04,-0.26,1.16
0.060751914978027344,-0.47,-0.99,-0.58,1.23
0.07128286361694336,-0.39,-0.91,-1.05,1.44
0.08138704299926758,-0.49,-1.03,-1.5,1.88
0.09015989303588867,-0.59,-1.13,-1.76,2.17
0.10256195068359375,-0.4,-0.55,-1.41,1.56
0.1107630729675293,-0.54,-0.27,-0.64,0.87
0.12127494812011719,-0.28,-0.24,-0.3,0.47
0.1313610076904297,0.08,-0.63,-0.32,0.71
0.14013290405273438,0.27,-1.28,-0.65,1.46
0.15251398086547852,0.5,-1.47,-0.91,1.79
0.16077303886413574,0.7,-1.52,-1.1,2.0
0.17131996154785156,0.48,-1.76,-1.19,2.17
0.18142104148864746,-0.25,-2.31,-1.1,2.57
0.19020605087280273,-0.89,-2.8,-0.98,3.09
0.20256614685058594,-0.94,-2.55,-0.83,2.84
0.21083498001098633,-0.71,-2.21,-0.62,2.4
0.22137904167175293,-0.24,-1.88,-0.44,1.94
0.23154115676879883,0.39,-1.49,-0.02,1.54
0.2402329444885254,0.69,-1.37,0.05,1.53
0.25269603729248047,0.67,-1.35,-0.11,1.51
0.2607121467590332,0.51,-1.35,-0.46,1.51
0.27141284942626953,0.3,-1.38,-0.91,1.68
0.2814059257507324,-0.26,-1.43,-1.12,1.83
0.29029393196105957,-0.63,-1.47,-1.05,1.91
0.30259203910827637,-0.35,-1.45,-0.5,1.57
0.3108699321746826,0.09,-1.58,-0.31,1.61
0.32134389877319336,-0.01,-2.0,0.05,2.0
0.33151912689208984,0.81,-1.99,0.13,2.15
0.3403358459472656,1.05,-1.93,-0.17,2.2
0.3528280258178711,0.38,-1.56,-0.42,1.65
0.36098599433898926,-1.76,-1.37,0.06,2.23
0.3714408874511719,-5.1,-0.76,0.97,5.24
0.38150596618652344,-6.01,-0.2,1.88,6.3
0.39020490646362305,-2.43,-0.68,2.12,3.29
0.4028358459472656,0.88,-0.88,0.55,1.36
0.41094398498535156,1.09,-0.03,-1.41,1.78
0.42147111892700195,0.18,1.03,-2.14,2.38
0.4315681457519531,-0.06,2.07,-2.0,2.87
0.44025087356567383,0.82,3.05,-1.65,3.56
0.4527699947357178,2.01,3.68,-1.08,4.33
0.460906982421875,2.05,4.27,0.02,4.73
0.4716148376464844,1.64,4.76,1.26,5.18
0.4815959930419922,1.26,5.25,2.14,5.8
0.490278959274292,1.39,6.19,2.93,6.98
0.5027399063110352,1.67,7.96,3.65,8.91
0.5109519958496094,1.82,10.73,4.21,11.66
0.5217850208282471,1.49,13.41,4.5,14.22
0.5320589542388916,1.53,15.49,4.03,16.07
0.5407729148864746,0.84,17.3,2.86,17.55
0.5533959865570068,-0.2,18.53,1.82,18.62
0.5614948272705078,-0.63,19.26,1.02,19.29
0.571505069732666,-0.69,19.71,0.3,19.72
0.582068920135498,-0.5,19.92,-0.56,19.93
0.5909028053283691,0.28,19.86,-1.12,19.89
0.6032249927520752,1.72,19.51,-1.19,19.62
0.6113059520721436,2.83,18.63,-0.65,18.85
0.6216750144958496,3.16,16.63,0.62,16.93
0.6321210861206055,3.3,13.7,1.75,14.2
0.6404428482055664,3.42,10.51,2.56,11.34
0.6528468132019043,3.47,7.47,3.06,8.78
0.6611039638519287,3.6,4.57,3.01,6.55
0.6714069843292236,4.12,2.3,2.94,5.55
0.6818828582763672,4.48,0.39,2.87,5.33
0.690432071685791,4.39,-1.49,2.37,5.2
0.7027988433837891,4.15,-3.19,1.9,5.56
0.7109861373901367,4.2,-4.3,1.56,6.2
0.7216160297393799,4.96,-4.9,1.2,7.07
0.7316408157348633,5.72,-5.37,1.03,7.91
0.7404849529266357,5.84,-6.08,1.26,8.52
0.7529690265655518,5.99,-6.64,1.5,9.06
0.7609519958496094,5.99,-7.07,1.76,9.43
0.7716350555419922,5.66,-7.57,1.73,9.6
0.7817769050598145,5.37,-8.06,1.47,9.79
0.7904670238494873,5.15,-8.66,1.2,10.14
0.8029460906982422,4.96,-9.16,1.14,10.47
0.8111469745635986,5.09,-9.25,1.23,10.62
0.821753978729248,5.39,-9.13,1.25,10.67
0.8317599296569824,5.49,-9.12,1.18,10.71
0.8405919075012207,5.36,-8.95,1.22,10.5
0.8529999256134033,5.64,-8.71,1.18,10.44
0.8612339496612549,5.91,-8.7,0.94,10.55
0.871549129486084,5.91,-8.81,0.75,10.63
0.8818860054016113,5.65,-8.79,0.81,10.48
0.8905868530273438,5.08,-8.72,1.1,10.15
0.9030129909515381,4.59,-8.78,1.39,10.0
0.911247968673706,4.58,-8.67,1.54,9.92
0.9218399524688721,4.82,-8.39,1.53,9.79
0.9319689273834229,4.92,-8.28,1.35,9.72
0.9406270980834961,5.29,-7.78,1.06,9.46
0.9531078338623047,5.75,-7.02,0.8,9.1
0.9612140655517578,5.59,-7.02,0.6,8.99
0.9717450141906738,4.87,-7.45,0.52,8.91
0.9819719791412354,4.19,-7.42,0.87,8.56
0.9906389713287354,3.62,-7.27,1.27,8.22
1.0029988288879395,3.09,-7.29,1.29,8.02
1.0112309455871582,2.9,-7.15,1.2,7.8
1.0217928886413574,2.73,-7.07,1.27,7.68
1.0319490432739258,2.53,-7.11,1.28,7.65
1.0407969951629639,2.87,-6.61,1.1,7.28
1.0529508590698242,3.38,-5.97,0.96,6.92
1.0611989498138428,3.46,-5.97,0.79,6.94
1.071709156036377,3.42,-5.99,0.49,6.91
1.0819480419158936,3.19,-5.81,0.1,6.62
1.0907750129699707,2.48,-5.49,-0.08,6.02
1.1027960777282715,1.55,-5.06,0.16,5.29
1.1112840175628662,0.74,-4.62,0.52,4.7
1.1218829154968262,0.72,-3.98,0.85,4.13
1.1320219039916992,1.03,-3.68,1.0,3.95
1.1407151222229004,1.46,-3.6,0.85,3.97
1.1530330181121826,1.84,-3.29,0.89,3.87
1.1613819599151611,2.02,-3.06,1.14,3.83
1.1717920303344727,1.93,-2.53,1.77,3.64
1.182034969329834,1.97,-1.64,2.64,3.67
1.1906909942626953,2.09,-1.03,3.01,3.8
1.2029449939727783,1.65,-0.72,2.85,3.37
1.2114319801330566,0.67,-0.7,2.13,2.34
1.2219829559326172,-0.94,-0.9,1.37,1.88
1.2321319580078125,-2.34,-1.39,1.15,2.95
1.2408499717712402,-2.1,-1.59,0.98,2.81
1.252990961074829,-1.27,-1.17,0.85,1.92
1.2614998817443848,-0.21,-0.22,0.75,0.8
1.27183198928833,1.03,0.75,-0.46,1.35
1.2822508811950684,1.29,1.14,-2.05,2.67
1.2909178733825684,1.39,1.04,-2.71,3.21
1.3031949996948242,1.92,1.42,-3.09,3.9
1.3114728927612305,1.11,1.46,-2.69,3.25
1.3219318389892578,0.24,1.01,-1.39,1.73
1.3321959972381592,0.3,0.77,-0.18,0.84
1.3409409523010254,0.6,1.56,1.0,1.94
1.3529338836669922,1.27,2.63,1.81,3.43
1.3615398406982422,1.9,3.96,1.88,4.77
1.3718669414520264,1.88,3.95,2.25,4.91
1.3822240829467773,2.01,3.37,2.43,4.61
1.3909430503845215,1.89,3.0,2.47,4.32
1.4029488563537598,1.59,3.1,2.43,4.24
1.4114890098571777,1.81,3.53,1.62,4.28
1.4220890998840332,1.96,4.05,0.65,4.54
1.4342520236968994,1.44,4.29,-0.01,4.52
1.4407868385314941,2.12,4.44,-1.08,5.03
1.452855110168457,2.43,4.37,-1.82,5.32
1.461388111114502,1.94,4.54,-1.72,5.22
1.4728269577026367,1.38,4.95,-1.16,5.26
1.4819908142089844,1.07,5.11,-0.65,5.26
1.4908199310302734,1.01,5.76,-0.39,5.86
1.5029010772705078,1.53,6.91,-0.11,7.07
1.5114951133728027,0.97,7.17,-0.48,7.25
1.5223889350891113,0.71,8.21,-1.27,8.33
1.5344738960266113,0.64,8.62,-1.02,8.7
1.54093599319458,0.27,8.93,-1.54,9.06
1.5527880191802979,0.27,9.4,-1.69,9.55
1.561614990234375,0.33,10.27,-1.85,10.44
1.5721769332885742,-0.13,10.99,-1.86,11.14
1.5848309993743896,-0.44,11.47,-1.49,11.57
1.5915160179138184,-0.75,11.9,-0.84,11.95
1.6032748222351074,-0.94,11.88,-0.51,11.92
1.6120829582214355,-1.11,11.65,0.03,11.7
1.6223700046539307,-1.26,11.74,0.33,11.81
1.6347661018371582,-1.21,11.71,0.29,11.77
1.6415519714355469,-1.36,11.27,0.14,11.35
1.6530461311340332,-1.46,10.39,0.15,10.49
1.6618170738220215,-1.4,9.53,0.29,9.63
1.672116994857788,-1.35,8.85,0.66,8.97
1.6844220161437988,-0.87,8.27,0.82,8.35
1.691023826599121,-0.45,8.09,0.73,8.13
1.7031941413879395,0.19,8.32,0.56,8.34
1.7117619514465332,1.24,8.47,0.07,8.56
1.722214937210083,2.17,8.01,-0.44,8.31
1.7344131469726562,2.48,7.14,-0.35,7.56
1.7411189079284668,2.22,6.2,0.12,6.58
1.7532739639282227,2.21,4.82,0.07,5.3
1.7616958618164062,2.66,3.43,-0.02,4.34
1.772109031677246,2.76,2.05,0.16,3.44
1.7842559814453125,2.31,0.63,0.51,2.44
1.7911460399627686,2.11,-0.59,0.57,2.26
1.8030359745025635,2.11,-1.77,0.62,2.82
1.8115668296813965,2.27,-2.48,0.62,3.41
1.8223228454589844,2.67,-2.81,0.57,3.91
1.8343849182128906,3.16,-3.14,0.36,4.46
1.8411030769348145,3.61,-3.05,-0.19,4.72
1.8532648086547852,3.25,-3.46,-0.81,4.81
1.8617470264434814,2.77,-4.29,-1.01,5.2
1.872107982635498,2.77,-4.89,-0.82,5.67
1.8845429420471191,3.18,-5.37,-0.45,6.25
1.891144037246704,3.64,-5.85,-0.15,6.89
1.9032130241394043,3.74,-6.32,-0.23,7.34
1.911837100982666,4.02,-6.54,-0.36,7.68
1.922292947769165,3.97,-6.57,-0.41,7.68
1.9345698356628418,3.73,-6.31,-0.33,7.33
1.9413189888000488,3.49,-6.41,-0.21,7.3
1.9532580375671387,3.55,-6.7,-0.4,7.59
1.9620490074157715,14.28,-21.35,-3.41,25.91
1.9723501205444336,-4.61,-20.43,-1.44,20.99
1.9847040176391602,-10.84,20.17,10.54,25.2
1.9912891387939453,29.28,-9.3,-6.55,31.41
2.003368854522705,-12.2,2.67,-2.11,12.66
2.011884927749634,9.1,-5.85,-2.33,11.06
2.0224599838256836,7.86,-5.64,-2.97,10.11
2.0346860885620117,7.31,-3.72,0.97,8.25
2.041274070739746,7.97,-2.75,2.21,8.71
2.053386926651001,3.83,-2.38,2.2,5.01
2.061985969543457,3.32,-2.94,0.82,4.5
2.0723791122436523,4.0,-2.74,-0.84,4.92
2.0846738815307617,4.42,-2.27,-1.34,5.14
2.0913290977478027,4.54,-2.54,-1.4,5.38
2.1033530235290527,3.95,-3.22,-1.25,5.24
2.1118531227111816,3.1,-4.06,-1.18,5.24
2.1224639415740967,3.07,-4.43,-0.99,5.47
2.134722948074341,3.47,-4.15,-0.68,5.45
2.141242027282715,3.85,-3.82,-0.8,5.48
2.1534390449523926,4.08,-3.71,-1.0,5.6
2.16201114654541,4.07,-3.65,-0.76,5.51
2.172384023666382,3.86,-3.53,-0.6,5.26
2.184724807739258,3.52,-3.32,-0.66,4.88
2.191336154937744,3.4,-3.16,-0.87,4.72
2.2034168243408203,3.42,-3.03,-1.19,4.72
2.211958885192871,3.47,-2.91,-1.45,4.75
2.2225539684295654,3.43,-3.02,-1.21,4.72
2.234707832336426,3.47,-2.92,-0.63,4.57
2.2412991523742676,3.4,-2.6,0.35,4.29
2.253532886505127,3.46,-2.35,1.48,4.43
2.2620420455932617,3.64,-2.03,2.0,4.62
2.2724270820617676,3.38,-1.26,2.0,4.12
2.2848291397094727,2.96,-0.54,1.31,3.28
2.2914061546325684,2.32,-0.51,0.4,2.4
2.30356502532959,1.72,-0.33,-0.39,1.79
2.3120298385620117,1.33,0.07,-1.08,1.71
2.3226349353790283,1.04,0.21,-1.24,1.63
2.3349881172180176,0.65,0.39,-0.6,0.96
2.3413939476013184,0.1,0.87,0.25,0.91
2.3535330295562744,-0.44,1.41,0.8,1.67
2.36211895942688,-0.57,2.24,0.84,2.45
2.372504949569702,-0.33,3.33,0.39,3.36
2.384827136993408,0.03,3.98,0.05,3.98
2.3914828300476074,-0.1,4.2,-0.03,4.2
2.4036200046539307,-1.06,4.44,-0.05,4.56
2.412047863006592,-1.67,4.95,0.01,5.22
2.422714948654175,-1.26,5.68,0.03,5.81
2.4348769187927246,-1.13,6.7,0.37,6.8
2.4413819313049316,-1.44,7.7,0.69,7.86
2.4535131454467773,-1.43,8.37,0.42,8.5
2.4620590209960938,-1.15,8.65,-0.42,8.73
2.4725329875946045,-0.84,8.96,-1.27,9.08
2.4849748611450195,-1.19,9.21,-1.32,9.37
2.491395950317383,-1.43,9.75,-1.02,9.9
2.503618001937866,-0.74,10.58,-0.78,10.63
2.5125269889831543,-0.06,11.13,-0.8,11.15
2.5226478576660156,0.1,10.89,-0.62,10.9
2.5352730751037598,-0.85,10.0,0.17,10.03
2.5415289402008057,-2.05,8.87,0.38,9.11
2.5538170337677,-2.68,8.07,0.31,8.5
2.5621628761291504,-2.69,7.86,0.9,8.35
2.57269287109375,-2.17,8.18,2.02,8.7
2.585318088531494,-1.52,8.19,2.84,8.8
2.5916881561279297,-0.98,8.1,3.6,8.91
2.603693962097168,-0.36,7.94,4.1,8.94
2.6122469902038574,-0.35,7.28,3.61,8.13
2.6227798461914062,-0.97,6.02,3.0,6.79
2.6352360248565674,-1.63,4.71,2.64,5.64
2.6416101455688477,-2.44,3.9,2.29,5.13
2.6536998748779297,-2.93,3.75,2.08,5.19
2.6622438430786133,-2.7,3.55,2.54,5.13
2.67280912399292,-2.63,2.68,3.03,4.82
2.685204029083252,-3.03,2.42,3.28,5.07
2.6916990280151367,-3.57,3.37,3.46,6.0
2.703716993331909,-3.64,3.8,2.8,5.96
2.7122950553894043,-3.36,2.88,1.45,4.65
2.7227888107299805,-3.85,1.78,0.38,4.25
2.7352638244628906,-4.65,1.26,-0.06,4.81
2.7416210174560547,-4.54,0.9,-0.43,4.64
2.753787040710449,-3.85,0.09,-0.4,3.87
2.7622690200805664,-3.07,-0.91,-0.27,3.21
2.772691011428833,-2.48,-1.83,-0.07,3.08
2.785107135772705,-2.25,-2.86,0.19,3.64
2.7916200160980225,-1.92,-3.62,0.26,4.1
2.803842067718506,-1.31,-3.95,0.11,4.16
2.8121609687805176,-0.68,-4.3,-0.12,4.35
2.822835922241211,-0.16,-4.94,-0.39,4.95
2.8350939750671387,0.21,-5.72,-0.54,5.74
2.8416099548339844,0.3,-6.45,-0.61,6.48
2.853701114654541,0.28,-6.62,-0.54,6.64
2.8622870445251465,0.41,-6.46,-0.41,6.48
2.8727331161499023,0.68,-6.51,-0.7,6.58
2.885236978530884,0.68,-6.67,-1.16,6.8
2.8917298316955566,0.63,-6.57,-1.59,6.78
2.9037671089172363,0.92,-5.7,-2.25,6.19
2.9123480319976807,1.59,-4.83,-2.63,5.72
2.923053026199341,2.04,-4.03,-2.39,5.11
2.9353959560394287,2.74,-2.75,-1.72,4.24
2.9417901039123535,3.32,-1.67,-0.8,3.8
2.9536960124969482,3.72,-0.71,0.0,3.78
2.962430953979492,3.64,-0.62,0.19,3.69
2.9727730751037598,3.16,-1.41,0.16,3.46
2.9854519367218018,2.96,-2.31,0.39,3.77
2.9917421340942383,2.81,-2.99,0.82,4.18
3.003908157348633,2.95,-3.37,1.1,4.61
3.012234926223755,3.41,-4.01,0.79,5.32
3.022952079772949,3.65,-4.83,-0.04,6.05
3.0354039669036865,3.98,-4.77,-0.9,6.27
3.0418059825897217,4.54,-4.74,-1.31,6.69
3.0537900924682617,4.53,-5.03,-1.4,6.91
3.062209129333496,4.3,-5.18,-1.4,6.87
3.0730910301208496,4.12,-5.4,-1.49,6.95
3.085526943206787,4.27,-5.8,-1.82,7.42
3.0918610095977783,4.49,-5.88,-2.11,7.69
3.103877067565918,5.06,-4.82,-2.36,7.37
3.112466812133789,6.28,-3.09,-2.17,7.32
3.123086929321289,6.89,-1.36,-1.33,7.14
3.1354751586914062,6.79,0.2,-0.48,6.8
3.141800880432129,6.49,1.74,-0.11,6.72
3.153862953186035,6.78,3.9,-0.04,7.82
3.1625850200653076,7.36,5.98,-0.1,9.48
3.1727538108825684,7.23,7.57,-0.1,10.46
3.185525894165039,6.85,7.95,-0.72,10.51
3.191772937774658,6.12,7.06,-1.29,9.43
3.203784942626953,4.89,5.72,-0.95,7.58
3.212367057800293,3.96,4.41,0.0,5.92
3.2229909896850586,3.72,3.02,1.13,4.92
3.235482931137085,3.7,2.18,2.19,4.82
3.2420849800109863,3.59,2.06,2.86,5.03
3.2538838386535645,3.99,2.12,3.16,5.51
3.262589931488037,4.38,1.93,3.04,5.67
3.2730109691619873,4.44,1.65,2.29,5.26
3.2857298851013184,4.51,1.32,1.02,4.8
3.291940927505493,4.46,0.85,-0.22,4.54
3.3042140007019043,4.19,-0.01,-0.93,4.29
3.3126378059387207,3.76,-0.95,-1.64,4.21
3.323141098022461,2.82,-1.88,-2.08,3.97
3.335592031478882,2.25,-2.95,-2.18,4.3
3.342060089111328,2.31,-3.75,-1.96,4.82
3.3539481163024902,2.35,-4.3,-1.79,5.21
3.3627448081970215,2.23,-4.36,-1.66,5.17
3.3729889392852783,1.93,-4.0,-1.79,4.78
3.38570499420166,1.46,-3.72,-2.42,4.67
3.3918209075927734,1.24,-3.53,-2.96,4.77
3.4039289951324463,1.17,-3.42,-2.91,4.64
3.412513017654419,1.16,-3.2,-2.61,4.28
3.423146963119507,0.93,-3.23,-2.08,3.95
3.435882091522217,0.72,-3.54,-1.26,3.82
3.441890001296997,0.4,-3.52,-0.14,3.54
3.4539871215820312,-0.18,-3.27,0.91,3.39
3.4627881050109863,-0.3,-2.83,1.33,3.14
3.4730730056762695,-0.5,-2.1,1.09,2.41
3.486034870147705,-0.65,-1.34,0.35,1.52
3.4920268058776855,-0.56,-0.36,-0.4,0.77
3.5040159225463867,-0.68,0.44,-0.7,1.07
3.5126590728759766,-1.04,1.06,-0.9,1.73
3.5233278274536133,-1.51,1.49,-1.08,2.38
3.5359389781951904,-1.61,2.04,-0.93,2.76
3.54223895072937,-1.44,2.33,-0.29,2.75
3.554068088531494,-1.41,2.53,0.47,2.93
3.5628881454467773,-1.58,3.06,1.27,3.67
3.5730738639831543,-1.84,2.98,1.6,3.85
3.585965156555176,-1.83,2.91,1.78,3.87
3.5919909477233887,-1.77,3.56,2.2,4.54
3.6041760444641113,-2.21,4.3,2.48,5.43
3.612691879272461,-2.28,4.77,1.92,5.62
3.6232969760894775,-2.01,5.24,1.04,5.7
3.6360058784484863,-2.15,5.76,0.55,6.17
3.6422200202941895,-2.77,5.84,0.23,6.46
3.654181957244873,-3.05,5.9,0.27,6.64
3.6629691123962402,-2.83,6.47,0.72,7.09
3.6732330322265625,-2.18,7.41,1.72,7.91
3.6857030391693115,-1.54,8.08,3.04,8.76
3.692157030105591,-1.32,8.47,3.84,9.39
3.7041478157043457,-1.02,9.32,4.11,10.23
3.712718963623047,-0.6,9.62,3.77,10.34
3.7234179973602295,-0.85,9.07,2.57,9.46
3.735866069793701,-1.51,9.08,1.74,9.36
3.7421460151672363,-1.72,9.38,0.98,9.58
3.75404691696167,-1.63,9.11,0.14,9.25
3.7628819942474365,-1.98,8.53,-0.15,8.75
3.773216962814331,-2.35,7.84,0.28,8.18
3.7859020233154297,-2.16,7.43,1.27,7.84
3.792196035385132,-1.63,7.01,2.17,7.51
3.8043150901794434,-1.36,6.04,3.08,6.91
3.8127830028533936,-1.58,4.67,3.57,6.08
3.823424816131592,-2.22,3.55,3.74,5.61
3.835811138153076,-3.09,2.51,3.92,5.58
3.8422789573669434,-3.25,1.45,3.67,5.11
3.854372978210449,-3.13,0.76,3.33,4.63
3.8630118370056152,-3.31,0.21,3.21,4.61
3.8732481002807617,-3.47,0.07,2.69,4.39
3.8858299255371094,-3.26,-0.15,1.98,3.81
3.8922269344329834,-3.05,-0.85,1.14,3.36
3.904223918914795,-2.99,-1.79,0.49,3.51
3.9128990173339844,-3.04,-2.54,0.1,3.96
3.9235270023345947,-3.29,-3.25,0.28,4.63
3.935955047607422,-3.47,-3.85,0.63,5.22
3.9423530101776123,-3.11,-4.11,0.69,5.2
3.9543418884277344,-2.56,-4.24,0.55,4.98
3.9630050659179688,-2.0,-4.19,0.22,4.64
3.9734020233154297,-1.39,-4.2,-0.2,4.42
3.98599910736084,-1.27,-4.73,-0.23,4.9
3.992298126220703,-1.47,-5.49,-0.1,5.68
4.004472017288208,-1.48,-6.02,-0.02,6.19
4.012991905212402,-1.27,-6.06,0.05,6.19
4.02354097366333,-0.99,-5.53,0.15,5.61
4.035808086395264,-0.42,-4.99,0.25,5.01
4.042374134063721,0.54,-5.04,-0.32,5.07
4.054351806640625,0.84,-5.36,-0.97,5.51
4.063197135925293,0.65,-5.8,-1.42,6.0
4.073391914367676,0.44,-6.18,-1.69,6.42
4.085856914520264,0.57,-5.94,-1.51,6.15
4.092321872711182,1.31,-5.12,-1.18,5.41
4.104491949081421,2.19,-4.31,-1.12,4.96
4.113048076629639,2.81,-4.07,-0.87,5.02
4.12352991104126,3.59,-4.35,-0.52,5.66
4.135765075683594,3.71,-4.81,-0.3,6.08
4.142434120178223,3.06,-5.14,-0.21,5.98
4.154335975646973,2.83,-5.61,-0.53,6.3
4.163128852844238,3.65,-6.29,-1.38,7.4
4.173490047454834,3.92,-6.34,-2.27,7.79
4.1857991218566895,4.51,-5.38,-2.89,7.59
4.1923840045928955,6.01,-4.82,-2.63,8.14
4.204463005065918,6.25,-4.95,-2.29,8.29
4.213114976882935,5.32,-5.52,-2.01,7.92
4.223660945892334,4.78,-6.34,-2.18,8.23
4.235957145690918,4.21,-6.33,-2.59,8.03
4.242448806762695,4.23,-5.46,-2.49,7.34
4.254496097564697,5.13,-4.06,-2.59,7.03
4.263339042663574,6.53,-2.08,-2.01,7.14
4.273607015609741,7.04,-0.31,-0.4,7.05
4.285689830780029,6.98,1.49,0.81,7.18
4.292440891265869,6.56,3.46,1.19,7.51
4.304600954055786,5.65,5.7,1.09,8.09
4.313084125518799,4.88,7.89,0.4,9.28
4.323728084564209,4.65,9.88,-1.3,10.99
4.335878849029541,4.29,11.4,-3.39,12.64
4.343127012252808,4.06,12.26,-4.37,13.63
4.354969024658203,3.97,12.13,-4.55,13.54
4.364029884338379,3.45,11.28,-4.01,12.45
4.373556137084961,3.03,10.09,-2.19,10.76
4.385700941085815,3.62,8.37,-0.63,9.14
4.392559051513672,4.25,6.51,0.6,7.79
4.404652118682861,4.31,4.85,1.83,6.74
4.413105010986328,4.5,3.38,2.3,6.07
4.423633098602295,4.75,2.14,2.31,5.69
4.435624122619629,5.08,1.23,2.03,5.6
4.442512035369873,5.2,0.28,1.32,5.37
4.454586982727051,5.01,-0.96,0.56,5.13
4.463696002960205,4.84,-2.06,0.03,5.26
4.473614931106567,4.81,-2.86,-0.62,5.63
4.4856858253479,4.68,-3.64,-1.67,6.15
4.492588996887207,4.18,-4.68,-2.61,6.79
4.504657983779907,3.9,-5.42,-3.02,7.32
4.513750076293945,3.18,-6.17,-3.24,7.66
4.523775100708008,2.07,-7.09,-3.13,8.02
4.535568952560425,1.73,-7.87,-2.46,8.42
4.542832851409912,1.61,-7.9,-1.49,8.19
4.55465292930603,1.4,-7.34,-0.58,7.49
4.563716888427734,1.32,-6.7,-0.33,6.83
4.573680877685547,1.51,-6.34,-0.42,6.53
4.585675954818726,1.44,-6.1,-0.86,6.32
4.592674970626831,1.45,-5.73,-1.58,6.11
4.604808807373047,0.89,-5.5,-1.76,5.84
4.613636016845703,0.07,-5.28,-1.56,5.5
4.623926162719727,-0.55,-5.11,-1.55,5.36
4.635905981063843,-1.08,-5.09,-1.79,5.5
4.642726898193359,-1.39,-4.63,-2.04,5.24
4.654746055603027,-1.65,-3.86,-1.81,4.57
4.663804054260254,-1.64,-2.89,-1.23,3.54
4.6738409996032715,-1.3,-1.51,-0.65,2.09
4.685451030731201,-0.96,-0.18,0.24,1.0
4.6927900314331055,-0.65,0.81,0.85,1.34
4.704921007156372,-0.76,1.79,1.05,2.21
4.713650941848755,-1.44,2.58,1.11,3.15
4.723947048187256,-1.83,3.78,0.73,4.26
4.735412120819092,-1.77,5.42,0.32,5.71
4.742888927459717,-1.26,7.48,0.36,7.59
4.754925012588501,-0.64,9.18,0.58,9.22
4.764060020446777,-0.09,10.54,0.77,10.56
4.773858070373535,0.27,11.18,0.55,11.19
4.785458087921143,0.06,11.16,0.45,11.16
4.793264865875244,-0.67,10.56,0.7,10.6
4.804970979690552,-1.2,9.8,1.05,9.92
4.813776016235352,-1.16,9.17,1.75,9.4
4.823951959609985,-1.2,8.55,2.85,9.09
4.83533501625061,-1.14,8.05,3.82,8.98
4.842844009399414,-0.93,7.77,4.5,9.02
4.8548688888549805,-0.67,7.69,4.73,9.05
4.863848924636841,-0.7,7.36,4.4,8.6
4.8739800453186035,-1.26,6.7,3.87,7.83
4.885280132293701,-1.79,6.48,3.61,7.63
4.892932891845703,-1.88,6.62,3.56,7.74
4.904879093170166,-1.61,6.94,3.22,7.81
4.913886070251465,-1.34,7.4,3.33,8.22
4.924027919769287,-1.04,7.52,3.47,8.34
4.93527889251709,-1.24,7.15,3.3,7.97
4.942915916442871,-1.74,6.67,2.95,7.49
4.954982042312622,-2.06,6.09,2.68,6.96
4.9639668464660645,-2.44,5.06,2.56,6.17
4.9740519523620605,-2.49,3.83,2.22,5.07
4.985373020172119,-2.31,2.84,1.95,4.14
4.9929399490356445,-2.27,2.12,2.15,3.77
5.0049238204956055,-2.33,1.02,2.18,3.34
5.013921022415161,-2.05,-0.18,2.02,2.88
5.024116039276123,-1.68,-1.28,2.37,3.17
5.035308837890625,-1.78,-2.36,2.42,3.82
5.042942047119141,-1.75,-3.09,1.87,4.01
5.055047988891602,-1.16,-3.45,1.38,3.89
5.064042091369629,-0.57,-4.13,0.56,4.2
5.074093818664551,-0.8,-5.24,-0.66,5.34
5.085320949554443,-1.3,-6.17,-1.21,6.42
5.093024015426636,-2.01,-7.0,-1.0,7.35
5.105050086975098,-2.61,-7.78,-0.84,8.24
5.113882064819336,-2.75,-8.24,-0.82,8.72
5.124134063720703,-2.5,-8.29,-0.79,8.69
5.13525915145874,-1.54,-7.71,-1.01,7.92
5.143127918243408,-0.59,-7.39,-1.06,7.48
5.155218124389648,-0.31,-7.63,-0.73,7.67
5.164170026779175,-0.44,-7.9,-0.4,7.92
5.174129009246826,-0.91,-7.93,-0.06,7.98
5.185110092163086,-1.52,-7.62,-0.09,7.77
5.193218946456909,-1.68,-6.93,-0.55,7.15
5.205063819885254,-1.07,-5.91,-1.09,6.1
5.213997840881348,-0.79,-5.14,-1.12,5.31
5.224234104156494,-0.61,-4.71,-1.1,4.87
5.235136985778809,-0.49,-4.32,-1.03,4.46
5.243075847625732,-0.63,-3.7,-0.34,3.76
5.255054950714111,-0.61,-2.95,0.34,3.03
5.264096975326538,-0.33,-1.99,0.59,2.1
5.2741241455078125,-0.68,-1.58,0.56,1.8
5.2850260734558105,-0.62,-1.08,-0.06,1.24
5.293169021606445,0.04,0.16,-0.76,0.77
5.305264949798584,0.47,1.39,-0.88,1.71
5.314144134521484,0.87,1.9,-0.57,2.16
5.324318885803223,1.44,1.54,-0.27,2.12
5.335186958312988,1.34,0.83,0.26,1.59
5.343158006668091,0.98,0.02,0.38,1.05
5.3552398681640625,1.78,-1.18,-0.33,2.16
5.364192008972168,2.6,-2.73,-1.54,4.07
5.374202013015747,3.39,-4.07,-2.48,5.84
5.385046005249023,4.18,-4.82,-3.38,7.22
5.3932318687438965,4.97,-5.38,-4.16,8.42
5.4052510261535645,5.83,-7.08,-4.05,10.02
5.414129972457886,5.87,-9.69,-4.48,12.18
5.424363136291504,5.13,-11.38,-4.74,13.35
5.434965133666992,5.01,-10.91,-4.25,12.73
5.443231105804443,6.12,-8.22,-3.37,10.78
5.455277919769287,8.03,-4.29,-2.23,9.37
5.464277982711792,9.34,-0.96,-1.97,9.59
5.474276065826416,9.75,1.52,-1.64,10.0
5.484915018081665,8.9,3.62,-0.68,9.63
5.493259906768799,7.15,5.23,0.72,8.88
5.505177021026611,6.28,6.02,1.46,8.82
5.514304161071777,5.48,6.76,1.41,8.81
5.524353981018066,4.75,8.02,1.03,9.37
5.535053014755249,3.73,8.9,0.46,9.66
5.543231010437012,2.34,8.74,-0.1,9.04
5.555293083190918,1.47,8.58,-0.4,8.71
5.564342021942139,0.58,8.55,-0.15,8.57
5.574259042739868,0.31,7.93,0.3,7.94
5.584971904754639,0.5,6.82,0.85,6.89
5.593289852142334,0.53,6.05,1.7,6.3
5.60529899597168,0.32,5.47,2.13,5.87
5.614392042160034,0.69,4.8,2.19,5.32
5.624482154846191,1.17,4.44,2.23,5.1
5.635362148284912,1.26,4.22,1.9,4.79
5.643327951431274,1.38,4.19,1.01,4.52
5.655421018600464,1.56,4.29,0.26,4.57
5.664446830749512,2.29,4.35,-0.45,4.93
5.674376010894775,3.13,4.34,-1.16,5.47
5.68501091003418,3.51,4.06,-1.88,5.68
5.693337917327881,3.4,3.23,-2.57,5.34
5.705418109893799,2.93,1.88,-2.98,4.58
5.71445894241333,2.37,0.85,-2.63,3.64
5.7245330810546875,1.6,0.4,-1.32,2.11
5.734858989715576,1.52,0.25,-0.09,1.54
5.743328094482422,1.94,0.52,0.64,2.1
5.755407810211182,2.4,1.18,0.94,2.83
5.764315128326416,3.19,1.56,0.51,3.58
5.7743659019470215,3.79,1.28,-0.31,4.01
5.784945964813232,3.99,0.94,-1.09,4.24
5.793407917022705,3.27,0.22,-1.44,3.57
5.805480003356934,3.21,-0.74,-1.65,3.68
5.8145270347595215,3.27,-1.12,-1.57,3.79
5.82466197013855,2.42,-1.01,-1.01,2.81
5.835003852844238,1.86,-0.9,-0.52,2.13
5.843415021896362,1.87,-0.68,-0.5,2.05
5.8554370403289795,2.12,-0.41,-0.81,2.3
5.864372968673706,2.65,-0.28,-1.48,3.04
5.874454021453857,2.71,-0.19,-2.27,3.54
5.884891033172607,1.67,-1.34,-2.43,3.23
5.893354892730713,1.53,-3.16,-1.95,4.01
5.905372142791748,1.37,-3.84,-1.06,4.21
5.914333820343018,0.71,-3.4,0.52,3.51
5.924615859985352,0.42,-3.01,1.86,3.56
5.934669017791748,0.33,-2.8,2.08,3.5
5.943479061126709,0.92,-1.92,1.51,2.61
5.955595016479492,1.22,-1.21,0.91,1.94
5.964399814605713,1.38,-1.28,-0.03,1.88
5.974493980407715,1.84,-1.96,-1.12,2.91
5.984786033630371,1.48,-3.09,-1.79,3.86
5.993503093719482,0.05,-4.26,-1.67,4.57
6.005568981170654,-1.04,-4.57,-1.25,4.85
6.014537811279297,-1.41,-4.12,-0.86,4.43
6.0247039794921875,-1.64,-3.95,-0.62,4.32
6.0348711013793945,-1.22,-4.06,-0.77,4.3
6.043543815612793,-0.29,-4.05,-1.24,4.24
6.055458068847656,0.12,-4.36,-1.37,4.57
6.064330101013184,-0.25,-4.82,-1.24,4.98
6.074496030807495,-1.21,-4.81,-0.57,4.99
6.084758996963501,-1.99,-4.45,0.31,4.88
6.093477010726929,-2.35,-3.74,0.68,4.46
6.105658054351807,-2.36,-2.85,0.44,3.72
6.114418983459473,-2.37,-2.31,-0.05,3.3
6.1247758865356445,-2.22,-1.7,-0.53,2.84
6.1347551345825195,-1.87,-0.78,-0.82,2.18
6.143639087677002,-1.27,0.4,-0.69,1.49
6.155641078948975,-1.12,1.59,0.03,1.94
6.164405822753906,-1.14,2.52,0.67,2.84
6.174551963806152,-0.8,3.47,0.41,3.58
6.184794902801514,-0.88,4.78,0.17,4.86
6.193667888641357,-1.88,6.06,0.81,6.39
6.205703973770142,-2.37,7.44,1.77,8.0
6.214584827423096,-2.03,8.69,2.67,9.31
6.22498893737793,-1.4,9.5,3.39,10.18
6.235015869140625,-1.07,10.41,3.78,11.12
6.244022846221924,-0.98,11.48,4.03,12.2
6.256095886230469,-0.9,12.61,4.13,13.29
6.264493942260742,-1.06,13.26,3.88,13.85
6.274734973907471,-1.66,12.95,3.29,13.46
6.285008907318115,-2.11,11.99,2.91,12.51
6.294243812561035,-2.41,11.11,3.53,11.9
6.305769920349121,-2.71,9.59,3.85,10.68
6.314383029937744,-2.75,7.38,3.47,8.6
6.324908018112183,-2.7,5.51,3.43,7.02
6.334862947463989,-3.03,3.49,4.03,6.13
6.343813896179199,-4.03,1.12,4.11,5.86
6.355803966522217,-4.81,-0.74,3.89,6.23
6.3642590045928955,-4.81,-1.43,3.73,6.25
6.374859809875488,-4.29,-1.83,3.25,5.68
6.384945869445801,-3.85,-2.73,2.43,5.3
6.393769025802612,-3.58,-3.68,1.81,5.44
6.405837059020996,-3.51,-4.28,1.76,5.8
6.414575099945068,-3.65,-4.87,1.91,6.37
6.424968004226685,-3.43,-5.4,1.5,6.57
6.434957981109619,-2.74,-5.43,0.73,6.12
6.443828105926514,-2.12,-5.4,0.13,5.8
6.455810070037842,-1.73,-5.83,-0.34,6.09
6.464525938034058,-1.87,-6.61,-0.95,6.93
6.474857807159424,-1.86,-7.73,-0.98,8.01
6.485077857971191,-1.65,-8.47,-0.93,8.67
6.493771076202393,-0.85,-8.57,-0.71,8.64
6.505879878997803,0.16,-8.6,-0.32,8.6
6.51448392868042,0.85,-8.29,-0.3,8.33
6.525001049041748,0.48,-7.51,-0.78,7.56
6.535019874572754,-0.06,-6.82,-1.47,6.97
6.543823957443237,-0.26,-6.37,-2.06,6.69
6.555861949920654,-0.55,-6.24,-2.29,6.66
6.564384937286377,-0.17,-5.54,-2.49,6.07
6.575019836425781,0.91,-4.24,-2.02,4.78
6.5849738121032715,1.42,-3.25,-1.25,3.76
6.5938239097595215,1.31,-2.04,-1.45,2.82
6.60598611831665,1.42,-1.45,-1.62,2.59
6.614452838897705,1.58,-1.81,-1.32,2.74
6.624992847442627,1.09,-2.18,-0.89,2.59
6.635018825531006,0.48,-1.86,-0.43,1.96
6.643872022628784,0.9,-1.68,-0.47,1.96
6.655946969985962,1.68,-1.95,-0.88,2.72
6.664801120758057,1.88,-2.37,-1.46,3.35
6.675014019012451,2.26,-3.5,-2.98,5.12
6.685148000717163,2.32,-4.79,-4.89,7.22
6.69392204284668,2.42,-5.9,-5.15,8.19
6.706023931503296,3.69,-6.75,-4.62,8.97
6.714601993560791,4.32,-7.45,-3.56,9.31
6.72514009475708,4.46,-8.15,-2.68,9.66
6.735252857208252,5.73,-7.85,-2.5,10.03
6.743988037109375,6.63,-6.15,-2.28,9.32
6.755959987640381,7.24,-2.79,-2.31,8.09
6.764830112457275,8.97,0.26,-1.04,9.03
6.774978160858154,9.75,2.34,0.81,10.05
6.785367012023926,9.5,3.84,2.17,10.47
6.793884992599487,8.64,4.59,2.66,10.13
6.805972099304199,8.27,5.9,2.04,10.36
6.814467906951904,8.64,8.37,1.13,12.08
6.825181007385254,7.83,9.83,0.87,12.59
6.835479021072388,6.34,9.77,-0.01,11.64
6.843984127044678,4.26,9.44,-1.67,10.49
6.856184959411621,2.51,8.35,-3.11,9.25
6.864607810974121,2.39,7.34,-3.56,8.5
6.8749799728393555,2.48,6.22,-2.71,7.22
6.885296821594238,1.67,5.1,-0.83,5.43
6.8940348625183105,0.87,3.82,0.84,4.0
6.906002044677734,1.07,3.36,1.9,4.0
6.914644956588745,1.15,3.44,2.62,4.47
6.925251007080078,1.37,3.55,2.57,4.59
6.935348033905029,1.61,3.65,1.92,4.42
6.944031000137329,1.86,3.93,0.93,4.44
6.9560370445251465,2.04,4.16,-0.02,4.63
6.964724063873291,2.5,4.24,-0.85,4.99
6.975096940994263,3.01,4.28,-1.34,5.4
6.985407829284668,3.66,4.09,-1.5,5.68
6.994009017944336,4.27,3.49,-1.53,5.72
7.006126880645752,4.72,2.39,-1.61,5.53
7.014800071716309,4.63,1.17,-1.33,4.95
7.02528190612793,3.86,-0.15,-0.72,3.92
7.035475969314575,4.03,-1.47,-0.5,4.31
7.044126987457275,4.12,-2.73,-0.21,4.94
7.056177139282227,3.68,-4.12,0.01,5.52
7.0649449825286865,3.29,-5.5,-0.23,6.41
7.075217962265015,2.84,-6.42,-0.59,7.04
7.085646152496338,1.83,-7.05,-1.44,7.42
7.09419584274292,1.36,-7.83,-2.3,8.27
7.106174945831299,1.58,-8.29,-2.76,8.87
7.114835977554321,1.68,-8.09,-2.8,8.72
7.125311851501465,1.95,-7.42,-2.37,8.02
7.135479927062988,2.22,-6.74,-1.84,7.33
7.144202947616577,2.0,-5.85,-1.41,6.34
7.156196117401123,1.31,-4.68,-1.09,4.98
7.164945125579834,0.73,-3.9,-1.26,4.16
7.175240993499756,0.7,-3.09,-1.59,3.54
7.185408115386963,1.06,-1.88,-1.25,2.49
7.194285869598389,1.04,-0.65,-0.52,1.33
7.206358909606934,0.52,0.28,0.36,0.69
7.214909076690674,0.31,1.52,1.36,2.06
7.225320816040039,0.25,3.19,1.91,3.72
7.235558986663818,0.05,4.68,1.63,4.95
7.244215965270996,-0.03,5.8,1.06,5.89
7.256288051605225,-0.32,6.95,0.78,7.0
7.264981031417847,-0.74,7.95,0.59,8.0
7.275239944458008,-1.16,8.57,0.65,8.67
7.285506010055542,-1.66,8.92,0.8,9.1
7.294209003448486,-2.06,9.57,0.9,9.83
7.306756019592285,-2.21,10.15,1.09,10.44
7.315267086029053,-2.13,10.3,0.85,10.55
7.325407028198242,-2.33,9.89,0.37,10.16
7.335613012313843,-2.71,9.42,0.67,9.82
7.3446550369262695,-2.92,9.25,1.37,9.79
7.356366157531738,-2.87,9.04,1.83,9.65
7.365120887756348,-2.56,8.98,2.23,9.6
7.375339984893799,-1.81,9.27,2.24,9.7
7.3856401443481445,-1.32,9.05,2.3,9.43
7.39463996887207,-1.18,8.84,2.52,9.26
7.406438827514648,-0.43,9.65,2.69,10.02
7.415070056915283,0.07,10.33,3.08,10.77
7.425394058227539,-0.3,9.3,2.68,9.68
7.435618877410889,-0.72,7.35,1.74,7.58
7.444581031799316,-1.04,5.93,1.1,6.12
7.456346035003662,-1.14,4.95,0.92,5.16
7.465199947357178,-1.42,3.34,1.05,3.77
7.475336074829102,-1.7,1.62,1.3,2.68
7.485663890838623,-1.53,0.88,1.77,2.49
7.494854927062988,-1.59,0.4,2.11,2.67
7.506531000137329,-1.52,-1.04,1.89,2.63
7.514957904815674,-1.27,-2.98,1.42,3.53
7.525418043136597,-1.7,-4.44,1.43,4.96
7.535593032836914,-2.17,-5.55,0.96,6.03
7.544708967208862,-2.44,-6.48,0.31,6.93
7.556336879730225,-2.6,-6.94,0.0,7.41
7.56515097618103,-2.21,-6.79,0.3,7.14
7.5754430294036865,-1.54,-6.32,0.53,6.52
7.585698127746582,-1.07,-5.76,0.73,5.9
7.594719886779785,-1.02,-5.54,1.45,5.81
7.6064629554748535,-1.36,-5.95,2.22,6.49
7.6150689125061035,-1.85,-6.66,2.55,7.36
7.625548839569092,-1.9,-7.24,2.41,7.86
7.635653972625732,-1.35,-7.53,1.85,7.87
7.644791126251221,-0.88,-7.58,0.97,7.69
7.656570911407471,-0.55,-7.42,-0.14,7.44
7.665163040161133,-0.34,-7.76,-0.85,7.81
7.675567150115967,-0.3,-8.32,-0.96,8.38
7.685728073120117,-0.4,-8.31,-1.25,8.41
7.694826126098633,-0.1,-7.95,-1.33,8.06
7.7066121101379395,0.35,-7.28,-1.26,7.39
7.715149879455566,-0.66,-6.76,-1.23,6.9
7.725873947143555,-2.14,-6.53,-0.89,6.92
7.73583197593689,-1.98,-6.65,-0.76,6.98
7.744866847991943,-1.69,-7.08,-0.85,7.32
7.756500005722046,-1.8,-7.11,-1.17,7.42
7.76528787612915,-1.32,-6.76,-1.82,7.12
7.775552988052368,-0.76,-6.15,-1.99,6.5
7.785533905029297,0.06,-5.29,-1.99,5.65
7.7948408126831055,1.13,-4.69,-1.54,5.06
7.8066020011901855,1.48,-4.28,-0.92,4.62
7.81515097618103,0.7,-3.88,-1.19,4.11
7.82568097114563,0.0,-3.34,-2.41,4.11
7.835908889770508,-0.3,-3.26,-3.87,5.06
7.845026016235352,0.82,-2.4,-4.87,5.49
7.856690883636475,2.75,-0.51,-4.71,5.47
7.865204811096191,3.8,1.1,-3.76,5.45
7.875541925430298,4.38,2.43,-2.9,5.78
7.885839939117432,4.4,3.23,-1.97,5.8
7.894958972930908,4.49,3.69,-1.3,5.95
7.906726837158203,5.25,4.81,-0.54,7.14
7.915248870849609,5.95,6.3,0.56,8.68
7.925765037536621,7.0,7.56,1.79,10.45
7.93585205078125,7.22,8.76,2.77,11.68
7.944944858551025,6.48,9.51,2.91,11.87
7.95654296875,6.2,9.53,1.95,11.53
7.965259075164795,6.01,8.91,0.54,10.76
7.97576904296875,5.41,7.87,-0.62,9.57
7.985889911651611,5.44,6.93,-1.63,8.95
7.994951963424683,5.73,6.17,-1.8,8.61
8.006654977798462,5.43,4.84,-1.13,7.36
8.015264987945557,5.02,3.23,-0.54,5.99
8.025727033615112,4.96,1.8,-0.37,5.28
8.035895824432373,4.93,0.49,-0.18,4.95
8.044986009597778,4.82,-0.67,-0.05,4.86
8.056694030761719,4.58,-1.53,0.12,4.83
8.06534194946289,4.52,-1.87,0.02,4.89
8.075778007507324,4.53,-1.74,-0.15,4.85
8.085803031921387,4.73,-1.74,-0.55,5.06
8.095021963119507,5.14,-1.72,-0.99,5.5
8.106766939163208,5.01,-1.66,-1.14,5.39
8.115424156188965,4.5,-1.77,-1.27,4.99
8.125818967819214,4.12,-2.24,-1.3,4.86
8.135994911193848,3.83,-2.61,-1.34,4.82
8.14499282836914,3.4,-3.1,-1.38,4.8
8.156704902648926,2.89,-3.56,-1.79,4.92
8.16542911529541,2.29,-3.78,-2.17,4.92
8.176036834716797,2.22,-4.01,-2.3,5.12
8.18600082397461,2.09,-4.15,-2.22,5.14
8.195168018341064,1.59,-4.12,-1.91,4.81
8.206859111785889,1.33,-3.95,-1.51,4.43
8.21556282043457,1.14,-3.81,-1.36,4.2
8.226212978363037,0.84,-3.8,-1.4,4.13
8.236181020736694,0.69,-3.65,-1.6,4.04
8.245136976242065,0.6,-3.06,-1.81,3.6
8.256857872009277,0.32,-2.52,-1.71,3.06
8.265556812286377,0.23,-2.0,-1.34,2.41
8.275954961776733,0.26,-1.39,-0.86,1.65
8.285881042480469,0.26,-0.81,-0.49,0.98
8.295103073120117,-0.15,-0.23,-0.29,0.39
8.307015895843506,-0.53,0.76,-0.36,0.99
8.31554102897644,-0.78,1.7,-0.38,1.9
8.325954914093018,-0.8,2.24,-0.46,2.42
8.336135864257812,-0.82,2.75,-0.51,2.91
8.345247030258179,-1.52,3.22,0.05,3.56
8.356852054595947,-2.24,3.74,0.83,4.43
8.365797996520996,-2.32,4.01,1.07,4.75
8.375916004180908,-1.87,4.34,0.73,4.78
8.386343955993652,-1.53,4.67,0.37,4.92
8.395226001739502,-1.36,4.91,0.29,5.1
8.407017946243286,-1.37,5.35,0.66,5.56
8.415560007095337,-1.65,5.99,1.2,6.32
8.426285028457642,-1.63,6.93,1.88,7.36
8.436184883117676,-1.43,7.84,2.32,8.3
8.44526195526123,-1.17,8.47,2.48,8.9
8.45691204071045,-0.69,9.11,2.47,9.46
8.465723037719727,-0.59,9.75,2.18,10.0
8.476228952407837,-0.72,10.23,1.59,10.37
8.486613035202026,-0.92,10.32,1.07,10.41
8.495237827301025,-1.1,9.97,1.22,10.1
8.507293939590454,-1.07,9.94,1.71,10.14
8.516209125518799,-0.79,10.57,2.21,10.82
8.526067972183228,-0.68,10.91,2.56,11.22
8.536847114562988,-0.27,10.43,2.2,10.66
8.545143127441406,0.21,9.53,1.76,9.69
8.557062149047852,-0.31,8.73,1.95,8.95
8.56589412689209,-0.16,8.4,2.06,8.65
8.576081991195679,0.55,8.74,2.08,9.0
8.586307048797607,0.85,8.69,2.1,8.98
8.59516191482544,1.12,8.04,1.75,8.3
8.607048988342285,1.6,7.35,0.95,7.58
8.615630149841309,1.46,6.38,-0.01,6.54
8.62609601020813,1.6,5.56,-0.87,5.85
8.636247158050537,1.35,4.01,-1.03,4.35
8.645117998123169,0.33,1.71,-0.72,1.88
8.65707802772522,-0.33,-0.51,-0.52,0.79
8.665743827819824,-1.13,-2.23,-0.16,2.5
8.676098823547363,-1.33,-3.1,0.1,3.37
8.686327934265137,-1.04,-3.31,0.25,3.47
8.695225954055786,-0.03,-2.6,0.48,2.64
8.70719289779663,0.93,-1.78,1.1,2.28
8.715725898742676,0.81,-2.1,1.45,2.67
8.726241111755371,1.08,-3.08,0.97,3.4
8.73632001876831,1.04,-4.0,0.34,4.14
8.745247840881348,0.34,-4.53,0.06,4.54
8.757193088531494,0.61,-4.38,0.14,4.42
8.765792846679688,0.85,-4.51,0.85,4.66
8.776134014129639,0.25,-4.35,1.53,4.61
8.786363124847412,0.21,-2.09,2.26,3.08
8.795239925384521,0.14,-0.53,2.75,2.8
8.807258129119873,0.49,-0.86,1.79,2.04
8.815685033798218,0.85,-2.19,0.53,2.4
8.826345920562744,1.0,-2.85,-0.12,3.02
8.836516857147217,1.59,-2.28,-0.28,2.79
8.845206022262573,1.74,-1.82,-0.25,2.53
8.857156038284302,1.72,-1.54,-0.7,2.41
8.865895986557007,1.64,-1.16,-1.55,2.53
8.87622594833374,0.92,-1.35,-2.24,2.77
8.886449813842773,0.18,-1.9,-2.43,3.08
8.895167827606201,-0.15,-2.53,-2.36,3.46
8.907364845275879,0.02,-3.26,-1.93,3.78
8.915778160095215,1.2,-4.25,-1.57,4.68
8.926762104034424,2.04,-5.03,-1.4,5.6
8.936540126800537,2.14,-5.07,-0.71,5.54
8.948405027389526,1.71,-4.26,0.3,4.6
8.957175016403198,1.93,-3.31,0.48,3.86
8.965911865234375,2.1,-3.59,0.24,4.16
8.97633981704712,1.79,-4.63,-0.22,4.96
8.98646593093872,1.61,-5.31,-0.52,5.57
8.995208024978638,2.06,-5.46,-0.34,5.84
9.007208824157715,3.67,-5.39,-0.14,6.52
9.015851974487305,4.02,-5.4,-0.35,6.74
9.026639938354492,3.15,-5.68,-0.38,6.5
9.036466121673584,2.4,-6.3,-0.38,6.75
9.04835295677185,1.93,-6.88,-0.03,7.14
9.057152032852173,2.62,-6.7,-0.01,7.19
9.065979957580566,3.81,-6.24,-0.42,7.32
9.076249122619629,4.22,-6.14,-0.56,7.47
9.086488962173462,4.14,-6.23,-0.58,7.5
9.095288038253784,3.82,-5.22,-0.89,6.52
9.107425928115845,7.26,22.05,-3.21,23.43
9.115967035293579,-1.76,-2.94,-7.11,7.89
9.127059936523438,1.6,-16.16,-5.94,17.29
9.136474132537842,5.7,-1.74,-0.81,6.01
9.148430824279785,4.96,7.22,1.09,8.82
9.157268047332764,1.85,-10.64,0.3,10.8
9.166043043136597,0.97,-9.29,3.45,9.95
9.176702976226807,4.49,-3.83,4.6,7.48
9.186676025390625,6.75,1.05,5.29,8.63
9.198331832885742,5.79,2.57,5.24,8.22
9.207282066345215,2.67,2.38,4.31,5.6
9.215972900390625,-1.64,-1.14,1.7,2.62
9.226670026779175,-3.94,-5.24,-0.26,6.56
9.236778974533081,-4.03,-6.96,-2.89,8.54
9.248404026031494,-2.33,-6.33,-4.96,8.37
9.257430076599121,-1.64,-4.62,-6.17,7.88
9.26621699333191,-1.1,-3.35,-7.02,7.85
9.276740074157715,0.08,-2.13,-7.9,8.18
9.286652088165283,-0.19,-1.61,-7.48,7.65
9.298288822174072,-1.51,-1.55,-5.97,6.35
9.307455062866211,-2.6,-2.14,-3.28,4.7
9.3160080909729,-2.84,-3.01,-1.49,4.39
9.326790809631348,-3.19,-3.88,-0.63,5.06
9.336676120758057,-2.99,-4.96,0.17,5.79
9.348235130310059,-2.63,-6.02,0.54,6.59
9.357537984848022,-3.01,-6.27,0.52,6.97
9.366127967834473,-1.92,-4.29,-1.26,4.86
9.376837968826294,-1.09,-1.65,-3.86,4.33
9.386725902557373,-0.78,-1.05,-4.54,4.72
9.398286819458008,-0.13,-2.38,-4.6,5.18
9.407466888427734,0.33,-4.01,-3.85,5.56
9.416051864624023,1.8,-3.7,-2.65,4.89
9.426921844482422,4.5,-1.75,-1.95,5.2
9.436738967895508,6.53,0.56,-1.46,6.71
9.448204040527344,6.6,3.25,-1.62,7.53
9.457461833953857,6.29,5.41,-0.55,8.31
9.466243028640747,7.85,7.84,2.0,11.27
9.476962089538574,9.55,10.54,4.64,14.96
9.487238883972168,10.34,12.37,6.53,17.39
9.4982271194458,9.38,12.42,7.57,17.3
9.507879972457886,7.16,10.92,7.3,14.96
9.516206979751587,4.87,9.14,5.63,11.78
9.527097940444946,3.66,8.05,2.86,9.29
9.536864042282104,2.82,7.32,0.4,7.85
9.548210144042969,2.18,6.82,-0.69,7.19
9.557493925094604,1.39,6.31,-0.4,6.47
9.566334962844849,0.74,5.63,0.43,5.69
9.577096939086914,0.73,4.92,1.03,5.07
9.586809158325195,0.98,4.11,1.16,4.38
9.598170042037964,0.91,3.37,1.13,3.66
9.607655048370361,0.71,2.95,1.23,3.27
9.616297006607056,0.24,2.73,1.36,3.05
9.627120971679688,-0.42,2.7,1.28,3.01
9.636811971664429,-0.65,2.49,1.08,2.79
9.648133039474487,-0.72,2.21,1.2,2.61
9.65759801864624,-1.12,1.82,1.05,2.38
9.666253089904785,-1.39,1.1,0.28,1.79
9.676975011825562,-1.45,0.34,-0.59,1.6
9.686897039413452,-1.63,-0.58,-1.4,2.22
9.698439121246338,-2.0,-1.55,-1.97,3.2
9.707592010498047,-2.17,-2.41,-2.12,3.87
9.71619987487793,-1.98,-3.18,-2.04,4.26
9.727159976959229,-1.67,-3.9,-1.91,4.65
9.736891984939575,-1.31,-4.68,-1.6,5.11
9.748180866241455,-0.85,-5.13,-0.79,5.25
9.757555961608887,-0.33,-5.04,0.2,5.05
9.76633882522583,-0.18,-4.85,0.86,4.92
9.776973009109497,-0.45,-4.52,0.89,4.62
9.786975860595703,-0.88,-3.94,0.5,4.06
9.798184871673584,-0.82,-3.13,-0.12,3.23
9.807715892791748,-0.29,-1.47,-0.63,1.62
9.81631088256836,0.59,1.39,-0.47,1.58
9.827145099639893,1.55,4.47,0.11,4.73
9.837095022201538,1.56,7.37,0.64,7.56
9.848068952560425,2.12,9.35,1.24,9.66
9.858099937438965,2.56,10.67,1.1,11.02
9.866899013519287,1.79,11.1,1.66,11.36
9.877087116241455,0.88,10.25,1.78,10.44
9.886973857879639,-0.1,9.03,1.5,9.15
9.898051023483276,-0.69,8.38,1.59,8.55
9.907732009887695,-0.61,8.49,1.71,8.68
9.916304111480713,-0.66,8.75,2.18,9.04
9.927181959152222,-0.59,9.02,2.52,9.38
9.937119960784912,-0.47,8.56,2.45,8.91
9.947926044464111,-1.13,6.97,1.62,7.24
9.957704067230225,-2.67,5.03,0.66,5.73
9.966525077819824,-3.66,3.35,0.31,4.97
9.977222919464111,-3.52,2.18,0.17,4.14
9.987048149108887,-2.76,1.21,0.4,3.04
9.997942924499512,-2.02,0.58,0.91,2.29
10.007855892181396,-1.78,-0.38,1.44,2.32
10.016539096832275,-1.91,-1.87,1.33,2.98
10.027265071868896,-2.02,-3.32,0.74,3.95
10.03693699836731,-2.02,-4.28,0.3,4.74
10.04789113998413,-1.94,-4.71,0.0,5.09
10.057933807373047,-1.98,-5.39,-0.46,5.76
10.066620826721191,-2.1,-6.25,-1.28,6.71
10.07724404335022,-1.9,-6.81,-1.69,7.26
10.08712100982666,-1.76,-7.02,-1.53,7.39
10.09789514541626,-1.7,-6.94,-1.44,7.28
10.108007907867432,-1.08,-6.47,-1.51,6.73
10.116501808166504,0.01,-6.29,-1.36,6.43
10.127331972122192,0.45,-6.62,-1.24,6.75
10.137168884277344,0.09,-7.2,-1.42,7.33
10.1477530002594,-0.41,-7.59,-1.79,7.8
10.158012866973877,-0.8,-7.55,-1.92,7.83
10.166668891906738,-0.47,-7.19,-2.14,7.51
10.177300930023193,0.23,-6.68,-2.43,7.11
10.187256813049316,0.58,-6.66,-2.39,7.09
10.19782304763794,0.45,-6.82,-2.16,7.16
10.207970142364502,0.25,-7.33,-2.14,7.64
10.216580867767334,-0.19,-7.55,-2.21,7.86
10.227377891540527,-0.38,-7.2,-2.19,7.53
10.23734998703003,0.18,-6.8,-2.01,7.09
10.247766017913818,0.89,-6.55,-1.61,6.8
10.25799298286438,1.64,-5.71,-1.23,6.06
10.26668405532837,2.01,-4.47,-0.89,4.98
10.277369022369385,1.56,-3.47,-0.61,3.85
10.287307977676392,1.95,-2.42,-0.75,3.19
10.297729015350342,2.22,-1.4,-0.71,2.71
10.308077812194824,1.97,-0.88,-0.19,2.16
10.316617012023926,1.18,-0.28,-0.15,1.22
10.327469825744629,-0.32,0.42,0.09,0.53
10.337332963943481,-1.21,1.04,-0.29,1.62
10.347661018371582,-0.49,1.54,-1.76,2.38
10.35794997215271,0.27,2.21,-2.63,3.44
10.366793155670166,0.99,2.7,-2.71,3.95
10.377373933792114,1.6,2.48,-2.76,4.04
10.387321949005127,1.38,2.32,-2.18,3.46
10.397722005844116,2.02,2.54,-1.57,3.6
10.408201932907104,2.17,2.82,-0.82,3.65
10.416696071624756,2.75,3.68,-0.77,4.65
10.427526950836182,3.98,4.89,-1.06,6.39
10.437328815460205,4.97,6.34,-0.21,8.05
10.44769287109375,5.18,7.46,1.32,9.17
10.458070993423462,5.22,7.98,2.62,9.88
10.466822147369385,5.21,7.63,3.33,9.82
10.477483987808228,5.3,7.09,3.27,9.43
10.487361907958984,5.58,6.91,2.76,9.3
10.49759292602539,5.7,6.4,2.39,8.89
10.508178949356079,5.31,5.4,1.9,7.8
10.516732931137085,4.73,4.27,0.99,6.44
10.527575016021729,4.38,2.84,0.13,5.22
10.53736686706543,4.33,1.47,-0.34,4.58
10.547629833221436,4.32,-0.14,-0.62,4.36
10.560475826263428,4.36,-1.58,-0.86,4.71
10.566802978515625,4.52,-2.56,-0.82,5.25
10.577558994293213,4.41,-3.2,-0.62,5.48
10.587430953979492,4.37,-3.8,-0.47,5.81
10.597486019134521,4.37,-4.21,-0.46,6.08
10.608281135559082,4.25,-4.78,-0.69,6.43
10.61683988571167,3.85,-5.18,-1.05,6.53
10.627626895904541,3.26,-5.29,-1.39,6.36
10.637624979019165,3.18,-5.05,-1.92,6.26
10.64755392074585,3.72,-4.41,-2.34,6.22
10.658025979995728,4.02,-3.91,-2.34,6.07
10.666904926300049,4.03,-3.63,-2.22,5.86
10.677358150482178,3.65,-3.63,-1.85,5.47
10.687435150146484,2.97,-3.81,-1.14,4.96
10.697577953338623,2.41,-3.84,-0.51,4.56
10.708245038986206,1.98,-3.7,-0.27,4.2
10.716812133789062,1.34,-3.39,-0.53,3.68
10.727694034576416,1.01,-3.07,-1.05,3.39
10.737413883209229,0.86,-2.94,-1.31,3.33
10.747621059417725,0.61,-2.93,-1.41,3.3
10.758211135864258,0.55,-2.32,-1.06,2.6
10.766927003860474,-0.05,-1.54,0.09,1.54
10.777583122253418,-0.91,-0.77,1.1,1.62
10.787423133850098,-0.93,-0.01,1.4,1.68
10.797739028930664,-0.81,1.01,1.62,2.07
10.80878210067749,-1.01,2.2,1.73,2.97
10.81669282913208,-1.34,3.47,1.52,4.01
10.827680110931396,-1.78,4.82,0.87,5.21
10.837450981140137,-1.87,6.4,0.67,6.7
10.847571849822998,-1.82,8.05,1.17,8.33
10.85811185836792,-1.72,9.62,1.54,9.89
10.867074966430664,-1.46,11.25,1.59,11.45
10.877710819244385,-0.86,12.51,1.44,12.62
10.887964010238647,-0.44,13.31,0.87,13.34
10.897368907928467,-0.31,13.31,0.49,13.32
10.909491062164307,-0.45,13.01,0.09,13.01
10.917295932769775,-0.67,12.06,-0.24,12.08
10.92787790298462,-0.76,11.05,0.29,11.07
10.93750810623169,-0.63,10.18,1.44,10.3
10.947404861450195,-0.47,9.13,2.11,9.38
10.95871114730835,-0.2,8.17,2.34,8.5
10.967111110687256,-0.16,7.32,2.52,7.74
10.977780818939209,0.0,7.07,2.59,7.52
10.987659931182861,0.66,7.69,2.58,8.13
10.997344970703125,1.17,7.81,2.2,8.19
11.008623123168945,0.7,6.05,1.65,6.3
11.016944885253906,-0.21,4.42,1.38,4.63
11.027837038040161,-1.0,3.61,1.48,4.02
11.037530899047852,-1.36,2.67,1.34,3.28
11.047276020050049,-1.0,2.06,1.02,2.5
11.058681011199951,-0.47,1.55,1.05,1.93
11.06708812713623,-0.51,1.08,1.28,1.75
11.077894926071167,-0.96,0.45,1.52,1.85
11.087754011154175,-1.38,-0.21,1.57,2.1
11.097429990768433,-1.48,-0.79,1.64,2.34
11.10885500907898,-1.58,-1.65,1.31,2.63
11.116971969604492,-1.72,-2.91,0.78,3.46
11.127977848052979,-2.11,-4.18,0.22,4.68
11.137731075286865,-2.58,-5.37,-0.19,5.96
11.147355079650879,-3.09,-6.36,-0.51,7.08
11.158831119537354,-3.56,-6.97,-0.64,7.85
11.167151927947998,-3.74,-6.95,-0.77,7.92
11.177955150604248,-4.11,-6.74,-0.79,7.93
11.187716960906982,-4.47,-6.68,-1.26,8.13
11.197329044342041,-4.19,-6.37,-1.76,7.82
11.208914995193481,-3.49,-5.97,-1.7,7.12
11.217063903808594,-3.15,-6.21,-1.57,7.13
11.227924823760986,-3.25,-6.97,-1.5,7.83
11.237844944000244,-3.42,-7.54,-1.0,8.33
11.247318029403687,-3.31,-7.65,-0.22,8.33
11.258661985397339,-3.07,-7.65,0.27,8.24
11.267269134521484,-2.82,-7.94,0.06,8.42
11.278002977371216,-2.28,-7.58,-0.77,7.95
11.287717819213867,-1.58,-6.59,-1.67,6.97
11.297191143035889,-1.06,-5.75,-2.36,6.3
11.309069156646729,-0.31,-5.04,-3.16,5.95
11.317219972610474,0.03,-4.88,-3.2,5.83
11.327965021133423,-0.08,-4.74,-2.45,5.33
11.337853908538818,-0.09,-4.13,-1.83,4.51
11.347278118133545,-0.34,-3.18,-1.5,3.53
11.358666896820068,-0.34,-1.73,-1.24,2.15
11.367233037948608,0.34,-0.46,-0.85,1.02
11.377944946289062,1.7,0.2,-0.39,1.75
11.38787293434143,2.67,0.82,0.22,2.8
11.397125959396362,3.31,1.29,0.74,3.62
11.409142971038818,3.57,0.86,0.83,3.76
11.417191982269287,3.29,0.21,0.48,3.33
11.427909851074219,2.84,-0.88,0.15,2.97
11.437958002090454,2.99,-1.93,-0.01,3.55
11.447074890136719,3.22,-2.29,-0.13,3.95
11.458974838256836,3.13,-2.4,-0.69,4.0
11.46734094619751,3.65,-1.71,-1.87,4.44
11.47796893119812,4.35,-0.12,-2.73,5.13
11.487957000732422,5.05,0.86,-2.88,5.87
11.497116088867188,6.05,2.09,-2.23,6.77
11.50917387008667,6.68,3.34,-0.89,7.52
11.517250061035156,6.41,4.42,0.54,7.8
11.52793002128601,6.56,5.14,1.34,8.44
11.537945985794067,6.92,5.6,1.03,8.96
11.547075033187866,6.9,5.74,0.2,8.97
11.559067964553833,6.45,5.94,-1.04,8.82
11.567431926727295,5.77,5.49,-1.74,8.15
11.577723026275635,5.49,4.34,-1.82,7.23
11.587944030761719,5.44,3.1,-1.0,6.34
11.59704303741455,4.87,2.03,0.69,5.32
11.6093111038208,4.73,0.95,1.9,5.18
11.61733603477478,4.77,-0.28,2.19,5.25
11.627686023712158,4.71,-1.52,1.76,5.25
11.637993812561035,4.52,-2.57,1.03,5.3
11.647111892700195,4.24,-3.87,0.06,5.74
11.65906810760498,3.75,-5.35,-0.72,6.57
11.667351961135864,2.88,-6.67,-1.22,7.36
11.677826881408691,2.2,-7.61,-1.52,8.06
11.68800687789917,2.13,-7.54,-1.4,7.95
11.696900844573975,2.15,-6.79,-0.8,7.16
11.709192991256714,2.3,-6.16,-0.88,6.63
11.717373847961426,2.85,-5.54,-1.65,6.44
11.727849006652832,3.21,-4.89,-2.14,6.22
11.7380690574646,3.07,-4.41,-2.26,5.82
11.747310161590576,2.6,-4.32,-2.35,5.56
11.759124040603638,2.26,-3.96,-2.43,5.16
11.7675199508667,2.42,-2.95,-1.85,4.24
11.777724027633667,2.25,-1.56,-0.5,2.78
11.788096904754639,1.76,0.19,0.98,2.02
11.796936988830566,1.63,2.06,1.86,3.21
11.80921196937561,2.0,3.53,1.82,4.44
11.817361831665039,2.47,4.68,1.01,5.38
11.827788829803467,2.41,5.85,0.28,6.33
11.838156938552856,1.47,6.61,0.35,6.78
11.84701681137085,0.49,6.93,0.21,6.95
11.859225034713745,0.46,7.76,0.34,7.78
11.867620944976807,-0.12,8.55,0.95,8.6
11.877840042114258,-0.2,8.84,1.38,8.94
11.888154983520508,0.42,9.06,1.84,9.25
11.896857023239136,1.01,8.85,1.87,9.1
11.909474849700928,1.15,7.91,1.45,8.12
11.917487144470215,0.83,6.85,1.21,7.0
11.927863121032715,0.08,5.36,1.37,5.53
11.938233852386475,-0.5,3.56,1.46,3.88
11.946882963180542,-0.62,2.17,1.53,2.72
11.959269046783447,-1.22,1.39,1.6,2.44
11.96763801574707,-1.32,1.38,1.24,2.27
11.977864027023315,-1.17,1.39,0.96,2.05
11.988219022750854,-0.92,0.95,-0.19,1.33
11.996948003768921,-0.97,0.59,-1.41,1.81
12.009512901306152,-1.54,0.34,-1.53,2.19
12.017568111419678,-2.36,0.02,-0.91,2.52
12.027961015701294,-3.43,-0.08,-0.59,3.48
12.038206100463867,-3.38,0.57,-0.3,3.44
12.046833992004395,-2.6,1.74,0.56,3.17
12.059271812438965,-2.06,3.34,1.4,4.16
12.067604064941406,-1.96,4.79,2.21,5.62
12.0779550075531,-2.17,5.29,2.26,6.14
12.08823299407959,-2.31,5.34,1.29,5.95
12.096889972686768,-2.83,5.57,0.37,6.25
12.109561920166016,-3.46,5.43,-0.36,6.44
12.11758303642273,-3.38,5.35,-0.76,6.37
12.128057956695557,-2.95,6.01,-0.2,6.69
12.138303995132446,-3.05,6.57,1.24,7.34
12.146921157836914,-2.99,6.54,2.38,7.57
12.159389972686768,-2.55,6.42,3.08,7.56
12.16763687133789,-1.78,6.35,3.71,7.56
12.178015947341919,-1.24,5.71,3.68,6.9
12.18835997581482,-1.48,4.34,2.83,5.38
12.197041988372803,-1.69,3.41,2.0,4.29
12.20978593826294,-1.62,2.49,1.77,3.45
12.217681884765625,-2.07,1.26,1.48,2.83
12.228293895721436,-2.12,0.3,1.0,2.36
12.238332986831665,-1.98,-0.78,0.88,2.3
12.247045993804932,-2.11,-2.47,0.86,3.36
12.259469032287598,-1.31,-4.23,0.6,4.46
12.267735004425049,-0.46,-5.54,0.19,5.56
12.278141021728516,-0.98,-6.6,-0.02,6.67
12.288341045379639,-2.04,-7.25,-0.13,7.53
12.296993017196655,-2.47,-7.62,-0.37,8.01
12.30962085723877,-2.48,-8.11,-0.79,8.51
12.317730903625488,-2.32,-8.55,-1.09,8.92
12.328269004821777,-1.9,-8.91,-1.32,9.2
12.338345050811768,-0.84,-9.08,-1.96,9.32
12.347048997879028,0.07,-8.76,-2.89,9.22
12.359472036361694,0.03,-8.7,-3.35,9.32
12.367824077606201,0.1,-8.83,-3.41,9.46
12.378306865692139,-0.18,-8.9,-3.4,9.52
12.388400077819824,-1.3,-8.94,-3.2,9.58
12.397059917449951,-2.1,-8.68,-3.39,9.55
12.409689903259277,-1.53,-7.7,-3.72,8.68
12.41776990890503,-0.53,-6.23,-3.53,7.18
12.428323030471802,0.21,-4.66,-2.87,5.47
12.438482999801636,0.73,-3.71,-1.95,4.25
12.447137832641602,1.26,-3.09,-1.28,3.57
12.459598064422607,0.65,-2.59,-0.25,2.68
12.46786093711853,-0.15,-1.72,0.1,1.72
12.47831392288208,-0.16,-1.24,-0.13,1.25
12.488504886627197,0.06,-0.89,-0.72,1.14
12.497103929519653,-0.31,-0.23,-1.09,1.15
12.509768009185791,-1.74,-0.33,-1.26,2.17
12.517832040786743,-3.28,-1.02,-1.86,3.9
12.528494834899902,-3.27,-1.41,-2.77,4.51
12.538519859313965,-2.5,-1.3,-2.86,4.01
12.547325134277344,-2.63,-1.84,-2.24,3.91
12.559712886810303,-2.6,-2.82,-1.73,4.2
12.56797981262207,-1.42,-3.52,-1.46,4.06
12.578487873077393,1.21,-2.24,-1.12,2.78
12.588588953018188,2.7,-0.76,-0.2,2.81
12.597331047058105,1.95,0.33,-0.11,1.98
12.609836101531982,1.75,0.35,-1.44,2.29
12.617807865142822,2.77,0.18,-2.27,3.58
12.628519058227539,4.05,1.6,-1.54,4.61
12.638627052307129,5.49,4.5,-0.17,7.1
12.647511005401611,6.72,7.11,1.53,9.9
12.659572124481201,7.3,8.7,2.87,11.71
12.668059825897217,6.91,8.98,3.54,11.87
12.678483963012695,6.48,8.54,3.56,11.29
12.688627004623413,6.8,8.12,2.67,10.92
12.697394847869873,6.55,7.26,1.76,9.93
12.709879875183105,5.27,5.91,1.39,8.03
12.717849016189575,4.33,4.44,1.0,6.28
12.728492021560669,4.37,3.45,0.88,5.63
12.738604068756104,4.44,2.41,1.36,5.23
12.747724056243896,4.62,1.17,1.51,4.99
12.759670972824097,4.18,0.0,1.52,4.44
12.76806902885437,3.47,-1.16,1.43,3.92
12.778453826904297,3.31,-1.87,1.21,3.98
12.788656949996948,3.34,-1.99,0.7,3.95
12.797605037689209,3.29,-1.98,0.08,3.84
12.809953927993774,3.34,-1.92,-0.38,3.87
12.818026065826416,3.44,-1.85,-0.97,4.02
12.828619003295898,3.42,-1.78,-1.71,4.21
12.838773012161255,3.3,-1.8,-2.34,4.42
12.847601890563965,3.06,-1.95,-2.7,4.52
12.859885931015015,2.74,-2.42,-2.79,4.59
12.868127822875977,2.46,-3.01,-2.58,4.66
12.878499031066895,2.38,-3.76,-2.18,4.95
12.888751983642578,2.57,-4.54,-1.86,5.53
12.897636890411377,2.73,-5.37,-1.99,6.34
12.910016059875488,2.43,-6.08,-2.37,6.96
12.91805100440979,2.08,-6.67,-2.76,7.51
12.928576946258545,2.07,-7.14,-2.94,7.99
12.938817977905273,2.32,-7.24,-2.62,8.04
12.947744846343994,2.16,-6.97,-1.69,7.49
12.95983099937439,1.96,-6.3,-1.18,6.7
12.968169927597046,2.27,-5.51,-1.01,6.04
12.97847604751587,3.18,-4.32,-1.01,5.45
12.98874807357788,3.93,-3.03,-1.26,5.11
12.997594833374023,3.83,-1.95,-1.33,4.49
13.009958028793335,3.9,-0.93,-1.25,4.19
13.018101930618286,3.82,0.55,-0.8,3.94
13.028759002685547,3.23,1.91,-0.03,3.75
13.038769006729126,2.68,2.78,0.73,3.92
13.047720909118652,2.31,3.89,1.65,4.81
13.059794902801514,1.91,4.9,2.21,5.7
13.068087100982666,1.77,5.5,2.21,6.18
13.078668117523193,1.38,6.04,2.24,6.58
13.088824033737183,0.54,6.69,1.84,6.95
13.097826957702637,-0.23,7.54,1.12,7.62
13.110013008117676,-0.77,8.37,0.64,8.42
13.118112087249756,-1.0,8.86,0.15,8.91
13.128751039505005,-1.48,8.62,-0.03,8.74
13.13882303237915,-2.12,8.2,0.35,8.47
13.147678852081299,-2.44,7.63,1.1,8.08
13.159925937652588,-2.33,6.89,1.49,7.42
13.168292045593262,-2.29,5.94,2.12,6.7
13.178764820098877,-2.14,5.32,2.59,6.29
13.188951969146729,-2.02,4.92,2.57,5.9
13.197924137115479,-1.83,4.61,1.99,5.34
13.210134983062744,-1.55,4.81,1.52,5.27
13.218244075775146,-1.38,5.09,1.34,5.44
13.228790998458862,-1.19,5.22,1.3,5.5
13.23896598815918,-0.94,5.35,1.34,5.59
13.24788498878479,-0.64,5.47,1.52,5.71
13.260034084320068,-0.34,5.2,1.19,5.34
13.268352031707764,-0.41,4.38,0.83,4.47
13.278654098510742,-0.9,3.6,1.16,3.88
13.289013862609863,-1.25,3.05,1.64,3.68
13.29793405532837,-0.96,2.96,1.75,3.57
13.310193061828613,-0.6,3.33,1.95,3.9
13.318283081054688,-0.55,3.53,2.04,4.11
13.32881212234497,-0.39,4.1,1.92,4.54
13.338871002197266,-0.31,4.52,1.69,4.83
13.347739934921265,-0.52,4.38,1.57,4.68
13.360080003738403,-0.62,4.69,1.78,5.05
13.36845588684082,-0.61,5.26,2.24,5.74
13.37876296043396,-0.76,5.62,2.07,6.03
13.389047145843506,-0.68,5.65,1.96,6.01
13.397993087768555,-0.58,5.64,2.39,6.15
13.410097122192383,-0.72,5.32,2.53,5.93
13.418304920196533,-1.03,4.35,2.17,4.96
13.428822040557861,-1.57,3.19,1.69,3.93
13.43896198272705,-1.82,2.6,1.12,3.36
13.448012828826904,-2.02,1.31,0.87,2.55
13.46002197265625,-2.32,-0.3,1.22,2.63
13.468434810638428,-2.48,-1.63,1.52,3.33
13.478785991668701,-2.47,-2.83,1.11,3.91
13.488968849182129,-2.4,-3.55,0.41,4.3
13.497825145721436,-2.0,-3.79,0.37,4.3
13.510115146636963,-1.79,-4.32,0.4,4.69
13.518325805664062,-1.44,-4.57,0.17,4.79
13.528904914855957,-0.97,-4.78,0.37,4.89
13.539000034332275,-0.94,-5.33,0.42,5.42
13.54805612564087,-1.01,-5.79,0.23,5.88
13.560212135314941,-1.25,-5.99,0.01,6.11
13.568544864654541,-1.57,-6.1,-0.43,6.31
13.57895803451538,-1.43,-6.38,-0.91,6.6
13.589200973510742,-1.17,-6.86,-1.27,7.07
13.598528861999512,-0.93,-7.44,-1.52,7.65
13.610126972198486,-0.63,-7.87,-1.76,8.08
13.618579864501953,-0.46,-8.27,-1.97,8.51
13.629015922546387,-0.2,-8.29,-2.05,8.54
13.639225959777832,-0.01,-7.56,-2.25,7.88
13.648291110992432,-0.12,-7.16,-2.41,7.55
13.660057067871094,0.05,-7.06,-2.71,7.56
13.668549060821533,0.1,-6.98,-3.09,7.63
13.67894983291626,-0.04,-7.17,-3.0,7.77
13.6891770362854,-0.58,-7.4,-2.22,7.74
13.698183059692383,-1.22,-7.5,-1.65,7.77
13.710257053375244,-1.63,-7.17,-1.41,7.48
13.718502044677734,-1.87,-6.59,-1.13,6.94
13.729069948196411,-1.65,-5.36,-1.64,5.84
13.739099979400635,-1.05,-4.16,-2.73,5.08
13.748175144195557,-0.25,-3.46,-3.14,4.67
13.76019287109375,0.87,-2.33,-3.04,3.92
13.768642902374268,1.87,-1.44,-2.04,3.11
13.778983116149902,1.9,-1.05,-0.58,2.24
13.789284944534302,1.42,-0.61,-0.35,1.58
13.798574924468994,1.4,-0.59,-0.75,1.69
13.810150146484375,1.91,-0.82,-1.03,2.31
13.818536043167114,3.35,-1.2,-1.53,3.87
13.82901906967163,4.98,-1.53,-1.37,5.38
13.839331150054932,5.91,-1.01,-1.01,6.08
13.848294019699097,6.19,-0.57,0.51,6.23
13.860279083251953,5.86,-0.33,1.76,6.12
13.868592023849487,5.24,0.02,1.95,5.59
13.879140853881836,5.16,0.33,1.49,5.38
13.889384031295776,5.96,1.71,-0.22,6.2
13.898432970046997,6.77,4.14,-0.73,7.96
13.91018795967102,7.61,6.67,0.17,10.12
13.918656826019287,8.11,9.47,1.11,12.51
13.929330825805664,7.57,11.35,2.32,13.83
13.944438934326172,6.58,11.86,2.07,13.72
13.948769092559814,5.59,11.34,0.72,12.66
13.960094928741455,4.23,9.9,-0.8,10.79
13.968817949295044,3.55,8.0,-1.79,8.93
13.9792799949646,3.08,6.19,-1.69,7.11
13.994221925735474,2.24,3.95,-0.45,4.56
13.998566150665283,1.89,1.6,0.84,2.61
14.010069847106934,2.58,-0.05,1.77,3.12
14.01874589920044,3.22,-1.36,2.09,4.07
14.029197931289673,3.42,-2.39,2.0,4.62
14.044368982315063,3.19,-3.49,1.54,4.97
14.048676013946533,2.83,-4.59,0.89,5.46
14.060081005096436,2.79,-5.13,-0.02,5.83
14.068758010864258,2.98,-5.29,-0.97,6.14
14.079283952713013,3.44,-4.99,-2.03,6.39
14.094297885894775,3.79,-4.32,-2.91,6.44
14.09857988357544,3.48,-4.2,-3.41,6.43
14.110160827636719,2.97,-4.17,-3.53,6.21
14.118772983551025,2.99,-4.01,-3.48,6.09
14.129173994064331,3.24,-3.73,-3.48,6.04
14.144232034683228,3.05,-3.78,-3.51,5.99
14.148535013198853,3.11,-4.31,-3.31,6.26
14.160056114196777,3.15,-4.68,-2.64,6.22
14.168813943862915,3.13,-4.47,-1.54,5.67
14.179258823394775,2.86,-4.22,-0.58,5.13
14.194268941879272,2.41,-4.18,0.14,4.82
14.198572158813477,2.14,-4.05,0.25,4.58
14.210373878479004,1.68,-3.89,-0.2,4.24
14.218852996826172,1.38,-3.73,-0.77,4.05
14.229367971420288,0.99,-3.43,-1.33,3.8
14.244382858276367,0.59,-2.9,-1.58,3.35
14.248680114746094,0.14,-2.29,-1.3,2.63
14.260226964950562,-0.53,-1.77,-0.74,1.99
14.268862009048462,-0.88,-1.15,-0.44,1.51
14.279258966445923,-0.72,-0.06,-0.39,0.82
14.29442310333252,-0.6,1.17,-0.05,1.31
14.298709869384766,-0.27,2.5,0.6,2.58
14.310353994369507,0.04,4.01,1.53,4.29
14.318859100341797,-0.16,5.77,2.59,6.32
14.329483032226562,-0.35,7.56,2.83,8.07
14.344396114349365,-0.08,9.01,1.95,9.21
14.34868597984314,0.32,10.14,0.85,10.18
14.360415935516357,-0.3,10.8,0.28,10.8
14.369421005249023,-1.38,11.14,0.04,11.22
14.379425048828125,-1.79,11.34,0.29,11.48
14.394338130950928,-1.38,11.34,0.85,11.45
14.398580074310303,-0.55,11.35,1.4,11.44
14.410336971282959,0.19,11.55,2.36,11.79
14.419274806976318,0.71,11.64,3.41,12.14
14.429524898529053,1.16,11.4,3.97,12.12
14.444491863250732,1.22,10.26,4.01,11.08
14.44877815246582,1.13,9.03,3.7,9.82
14.460237979888916,0.61,7.76,3.57,8.56
14.468982934951782,-0.13,6.33,3.34,7.15
14.479464054107666,-0.24,5.33,2.73,5.99
14.494616031646729,0.24,5.17,2.07,5.57
14.498900890350342,0.84,5.32,1.66,5.63
14.510370016098022,0.86,4.92,1.57,5.23
14.519002914428711,0.85,4.35,1.44,4.66
14.529529094696045,1.07,4.32,1.11,4.58
14.544739007949829,0.73,4.14,0.87,4.29
14.549036979675293,0.3,3.74,0.31,3.76
14.56032395362854,-0.08,3.55,0.23,3.55
14.569090843200684,-1.1,3.13,1.01,3.46
14.579560995101929,-1.75,2.21,1.58,3.23
14.594609022140503,-1.93,1.44,1.35,2.76
14.598794937133789,-1.51,1.26,0.81,2.12
14.610605001449585,-1.13,0.62,0.5,1.38
14.619083881378174,-1.51,-0.69,0.84,1.86
14.629596948623657,-2.01,-2.04,1.36,3.17
14.64478588104248,-2.98,-3.22,1.13,4.53
14.649049997329712,-3.7,-4.41,0.16,5.75
14.660452842712402,-4.15,-5.6,-0.89,7.02
14.669173002243042,-4.0,-6.34,-1.78,7.7
14.67947793006897,-3.49,-6.34,-2.45,7.64
14.694686889648438,-3.0,-5.84,-2.83,7.14
14.698908805847168,-2.56,-5.64,-2.49,6.67
14.710479974746704,-2.49,-5.57,-1.7,6.33
14.719048976898193,-2.78,-5.71,-0.63,6.38
14.729663848876953,-3.02,-5.88,-0.13,6.61
14.744879007339478,-2.78,-6.04,-0.16,6.65
14.749159812927246,-2.15,-6.31,-0.24,6.67
14.760498046875,-1.54,-6.68,-0.03,6.85
14.769186973571777,-1.25,-6.75,0.3,6.87
14.779597997665405,-0.89,-5.77,0.45,5.85
14.795037984848022,-0.58,-5.03,0.39,5.07
14.799281120300293,-0.37,-5.07,-0.62,5.12
14.810673952102661,-0.44,-5.3,-2.02,5.68
14.819149017333984,-0.31,-5.4,-3.19,6.27
14.829728126525879,0.03,-5.28,-3.54,6.35
14.844901084899902,0.18,-4.96,-2.8,5.69
14.849148035049438,0.16,-4.74,-1.55,4.98
14.860597133636475,-0.16,-4.23,-0.99,4.34
14.86924695968628,-0.2,-3.52,-1.1,3.69
14.87974500656128,-0.07,-2.93,-1.05,3.11
14.89494800567627,-0.15,-2.57,-0.58,2.63
14.899245023727417,-0.18,-2.32,-0.5,2.38
14.91066598892212,-0.11,-2.62,-0.44,2.65
14.91922903060913,-1.34,-3.24,-0.2,3.51
14.929702043533325,-1.76,-3.55,-0.39,3.98
14.94484806060791,-1.44,-4.36,-0.86,4.67
14.949122905731201,-0.92,-5.14,-1.58,5.45
14.960664987564087,0.91,-4.84,-2.12,5.36
14.969238996505737,2.04,-4.73,-1.53,5.37
14.979737043380737,2.31,-4.42,-1.59,5.23
14.995044946670532,2.39,-3.83,-1.81,4.86
14.99930191040039,2.9,-2.52,-2.35,4.5
15.010704040527344,4.18,-0.88,-3.27,5.37
15.019239902496338,6.48,1.41,-3.28,7.39
15.02989387512207,8.6,3.9,-1.43,9.55
15.045220851898193,9.05,6.01,1.09,10.91
15.049474954605103,7.75,7.21,3.02,11.0
15.060656070709229,6.75,7.39,3.77,10.69
15.069253921508789,6.45,7.26,3.14,10.2
15.079754829406738,5.89,6.66,1.79,9.06
15.09495210647583,4.95,5.73,0.35,7.58
15.099200963973999,4.5,4.79,-1.2,6.68
15.110821008682251,4.14,3.9,-2.5,6.21
15.119266033172607,4.75,2.95,-2.47,6.11
15.129805088043213,5.22,2.16,-1.07,5.74
15.145110130310059,4.54,1.09,0.55,4.7
15.149427890777588,3.84,-0.02,1.73,4.21
15.16071891784668,3.46,-1.15,2.38,4.35
15.169420957565308,3.42,-2.01,2.66,4.77
15.179855823516846,3.27,-2.38,2.68,4.85
15.19502305984497,3.27,-2.42,2.25,4.64
15.199175834655762,3.72,-2.37,1.29,4.59
15.210867881774902,3.78,-2.05,0.34,4.31
15.219398021697998,2.85,-1.75,-0.19,3.34
15.229918003082275,2.13,-1.4,-0.52,2.6
15.245327949523926,2.25,-1.11,-0.69,2.6
15.24957799911499,2.97,-1.35,-1.09,3.43
15.260785102844238,3.33,-1.96,-1.62,4.18
15.26948881149292,3.21,-2.36,-1.61,4.29
15.27993106842041,3.2,-2.19,-1.04,4.01
15.295262813568115,3.23,-1.64,-0.54,3.66
15.299522876739502,2.76,-0.99,-0.4,2.95
15.31085205078125,2.51,-0.15,-0.56,2.57
15.319371938705444,3.2,1.19,-0.46,3.44
15.329982042312622,3.76,2.9,-0.01,4.74
15.345216035842896,3.1,3.92,1.5,5.21
15.349457025527954,1.65,4.06,4.06,5.97
15.360797882080078,0.91,3.75,3.26,5.05
15.36954402923584,-0.13,3.27,1.0,3.42
15.3799569606781,-0.84,2.76,0.56,2.93
15.395334005355835,-0.91,1.82,0.71,2.15
15.399605989456177,-0.02,1.48,1.58,2.16
15.410917043685913,0.83,1.32,1.66,2.27
15.419593811035156,1.21,1.29,1.28,2.18
15.430084943771362,1.18,1.14,0.62,1.75
15.445520877838135,0.67,1.11,-0.52,1.39
15.449790954589844,0.32,1.0,-1.58,1.89
15.46092700958252,-0.06,0.51,-1.94,2.0
15.469568014144897,-0.11,0.24,-1.55,1.57
15.479957103729248,0.21,0.33,-0.42,0.57
15.495707988739014,0.77,1.24,0.79,1.65
15.500378131866455,0.98,2.89,2.02,3.65
15.511138916015625,0.98,3.72,3.7,5.33
15.51973581314087,1.07,3.68,4.53,5.93
15.530050992965698,1.6,3.44,4.78,6.1
15.545377016067505,2.01,3.16,4.59,5.92
15.549601078033447,0.95,2.36,3.73,4.51
15.560897827148438,-0.71,1.5,3.14,3.55
15.569658041000366,-1.85,1.34,2.83,3.63
15.580132961273193,-2.12,1.14,2.37,3.37
15.595476150512695,-1.47,1.24,2.17,2.89
15.599740028381348,-1.25,1.41,2.02,2.76
15.611263036727905,-1.15,1.12,1.69,2.33
15.619658946990967,-0.75,1.16,1.83,2.29
15.630052089691162,-0.75,1.29,2.64,3.03
15.64546799659729,-0.95,1.36,2.44,2.95
15.649685859680176,-1.3,1.35,1.56,2.43
15.661060810089111,-1.61,1.34,0.66,2.19
15.669760942459106,-1.81,1.52,0.33,2.38
15.680104970932007,-1.89,1.93,0.32,2.72
15.695600032806396,-1.24,2.26,0.01,2.57
15.699860095977783,0.17,1.94,-0.65,2.05
15.711122989654541,0.34,1.91,-1.36,2.36
15.719635963439941,0.04,1.52,-2.13,2.61
15.730175971984863,-0.8,1.01,-2.18,2.53
15.745665073394775,-1.47,0.7,-2.05,2.61
15.749916076660156,-1.7,0.25,-2.01,2.64
15.76100492477417,-1.72,0.1,-1.99,2.63
15.769668102264404,-1.22,0.36,-2.16,2.5
15.780084133148193,-0.81,0.35,-1.99,2.17
15.795923948287964,-0.74,0.13,-1.76,1.91
15.80016803741455,-0.54,0.09,-1.93,2.0
15.81120491027832,-0.64,-0.19,-2.05,2.15
15.819730997085571,-1.02,-0.35,-2.31,2.54
15.830302000045776,-1.21,-0.25,-2.5,2.78
15.846122980117798,-1.02,-0.52,-2.31,2.57
15.850307941436768,-0.63,-0.8,-2.37,2.57
15.8612539768219,-0.59,-0.27,-1.87,1.97
15.869824886322021,-0.27,-0.33,-1.38,1.44
15.880250930786133,0.04,-0.29,-2.19,2.2
15.895739078521729,-0.34,0.08,-2.57,2.59
15.899969100952148,-0.8,0.12,-2.47,2.59
15.911345958709717,-0.59,-0.01,-1.92,2.0
15.919816970825195,-0.09,-0.17,-1.01,1.02
15.931726932525635,0.01,-0.15,-0.19,0.24
15.947010040283203,-0.03,-0.05,0.46,0.46
15.951253890991211,0.06,-0.19,0.5,0.53
15.96133303642273,-0.05,-0.41,0.0,0.41
15.969895839691162,-0.36,-0.61,-0.61,0.93
15.980399131774902,-0.82,-0.69,-0.96,1.43
15.995882987976074,-0.82,-0.6,-0.94,1.38
16.000041961669922,-0.32,-0.41,-0.7,0.87
16.01129388809204,0.17,-0.3,-0.27,0.43
16.019929885864258,0.45,-0.1,-0.09,0.46
16.030395984649658,0.54,-0.03,-0.24,0.59
16.045977115631104,0.36,-0.03,-0.26,0.44
16.05010414123535,0.11,-0.13,-0.17,0.24
16.06107187271118,-0.1,-0.31,-0.17,0.36
16.07003688812256,-0.16,-0.37,-0.12,0.42
16.080291032791138,-0.47,-0.07,0.03,0.47
16.09616184234619,-0.48,0.19,-0.13,0.53
16.10042095184326,0.2,-0.08,-0.58,0.61
16.111398935317993,0.05,-0.07,-0.73,0.73
16.119879007339478,-0.33,0.07,-0.97,1.02
16.130375862121582,-0.64,0.15,-1.27,1.43
16.145792961120605,-0.64,0.02,-1.53,1.65
16.14998698234558,-0.62,-0.02,-1.85,1.95
16.16125798225403,-0.69,0.09,-1.98,2.09
16.169962882995605,-0.71,0.07,-1.56,1.71
16.180464029312134,-0.67,0.05,-0.86,1.09
16.196048974990845,-0.84,-0.05,-0.35,0.91
16.20029902458191,-1.19,-0.36,0.01,1.24
16.211344003677368,-0.87,-0.49,0.43,1.08
16.219995975494385,0.03,-0.38,0.14,0.4
16.23044490814209,-0.06,-0.22,-0.56,0.6
16.245965003967285,-0.54,-0.03,-1.23,1.34
16.250269889831543,-1.1,0.29,-1.58,1.94
16.26134490966797,-1.69,0.46,-1.49,2.29
16.27003812789917,-1.98,0.44,-1.09,2.3
16.28044891357422,-1.68,-0.06,-0.49,1.75
16.295974016189575,-1.05,-0.68,-0.5,1.34
16.300243854522705,-0.65,-0.75,-0.64,1.18
16.311460971832275,-0.7,-0.76,0.15,1.04
16.320016860961914,-0.51,-0.73,-0.02,0.89
16.330577850341797,-0.06,-0.47,-0.34,0.58
16.346035957336426,-0.03,-0.27,-0.27,0.38
16.350270986557007,0.07,-0.19,0.27,0.33
16.361513137817383,0.28,-0.02,1.06,1.09
16.370150089263916,0.33,0.01,1.46,1.49
16.380419969558716,0.27,0.01,1.45,1.47
16.395992040634155,0.1,-0.1,0.7,0.71
16.400249004364014,-0.1,-0.07,-0.22,0.25
16.411540985107422,-0.22,0.16,-0.58,0.64
16.42003107070923,-0.34,0.29,-0.47,0.64
16.430616855621338,-0.4,0.32,-0.39,0.64
16.445876121520996,-0.4,0.35,-0.12,0.54
16.450011014938354,-0.39,0.43,0.04,0.58
16.461437940597534,-0.47,0.5,-0.2,0.71
16.47000503540039,-0.47,0.73,-0.58,1.04
16.480453968048096,-0.44,0.73,-0.8,1.16
16.495824813842773,-0.44,0.74,-0.94,1.27
16.500011920928955,-0.22,0.81,-0.71,1.09
16.511487007141113,0.03,0.72,-0.65,0.97
16.520108938217163,0.24,0.58,-0.63,0.88
16.530619144439697,0.53,0.62,0.01,0.81
16.54594397544861,0.49,0.44,0.85,1.07
16.550167083740234,0.35,0.24,1.26,1.32
16.561561107635498,0.4,0.17,1.21,1.28
16.570209980010986,0.42,0.01,0.54,0.68
16.58069610595703,0.34,-0.13,-0.29,0.46
16.595930099487305,0.15,-0.11,-0.99,1.0
16.600199937820435,0.03,0.02,-1.46,1.46
16.6115779876709,0.02,0.21,-1.7,1.71
16.62035083770752,0.02,0.36,-1.72,1.75
16.63066291809082,0.07,0.4,-1.45,1.5
16.64583683013916,0.18,0.35,-1.04,1.11
16.65013098716736,0.28,0.25,-0.49,0.61
16.66160798072815,0.22,0.06,0.02,0.22
16.670297145843506,0.11,-0.2,0.13,0.26
16.680670022964478,0.12,-0.43,0.01,0.44
16.69578790664673,0.1,-0.61,-0.18,0.64
16.700024127960205,0.08,-0.69,-0.48,0.84
16.71164894104004,0.66,-0.48,-0.48,0.94
16.72021794319153,0.85,-0.2,-0.22,0.9
16.730788946151733,0.54,-0.03,0.16,0.56
16.745816946029663,0.49,0.03,0.35,0.6
16.750041961669922,0.44,0.06,0.31,0.54
16.761559009552002,0.43,0.13,0.14,0.47
16.770287036895752,0.47,0.2,0.0,0.51
16.780524969100952,0.36,0.2,0.12,0.42
16.79592990875244,0.12,0.08,0.5,0.52
16.80013084411621,-0.05,-0.03,0.95,0.95
16.811614990234375,0.02,-0.03,1.06,1.06
16.820245027542114,0.27,-0.05,0.8,0.84
16.83087396621704,0.51,-0.02,0.48,0.7
16.846012115478516,0.65,0.0,0.29,0.71
16.850258827209473,0.76,0.07,0.31,0.82
16.861645936965942,0.6,-0.06,0.81,1.0
16.870434999465942,0.27,-0.29,1.38,1.43
16.880855083465576,0.28,-0.2,1.51,1.54
16.895838975906372,0.37,-0.23,1.28,1.35
16.900076866149902,0.32,-0.34,0.92,1.03
16.911767959594727,0.13,-0.43,0.58,0.73
16.920380115509033,0.02,-0.55,0.36,0.65
16.93088698387146,0.08,-0.57,0.39,0.69
16.945758819580078,0.22,-0.53,0.48,0.74
16.949963092803955,0.34,-0.42,0.54,0.76
16.961867809295654,0.39,-0.31,0.51,0.71
16.97041893005371,0.3,-0.39,0.32,0.58
16.98090887069702,-0.07,-0.37,0.04,0.37
16.995730876922607,-0.43,-0.21,-0.16,0.5
17.00000810623169,-0.37,-0.1,-0.22,0.44
17.011940002441406,-0.16,-0.02,-0.09,0.18
17.020773887634277,0.1,0.01,0.06,0.11
17.030972003936768,0.24,-0.03,0.33,0.4
17.04569697380066,0.08,0.01,0.86,0.86
17.049975872039795,-0.08,0.1,1.41,1.41
17.061716079711914,-0.06,0.1,1.61,1.61
17.07081413269043,0.06,0.02,1.44,1.44
17.081008911132812,0.19,-0.07,1.07,1.08
17.095677852630615,0.22,-0.11,0.6,0.64
17.09992003440857,0.17,-0.04,0.35,0.39
17.11196494102478,0.29,0.01,0.4,0.49
17.120728015899658,0.69,0.12,0.48,0.84
17.13111400604248,0.1,0.29,0.47,0.56
17.145793914794922,-0.09,0.47,0.41,0.63
17.150048971176147,-0.07,0.32,0.48,0.58
17.1619930267334,-0.15,0.18,0.37,0.43
17.17095708847046,-0.62,-0.07,0.45,0.76
17.180992126464844,-0.61,-0.39,0.39,0.82
17.195690155029297,-0.08,-0.5,0.17,0.53
17.19993305206299,0.37,-0.77,-0.23,0.88
17.212080001831055,0.54,-1.2,-0.48,1.4
17.22077512741089,0.56,-1.28,-0.48,1.47
17.231089115142822,0.54,-1.09,-0.31,1.25
17.24555015563965,0.54,-0.79,0.02,0.95
17.24989891052246,0.73,-0.39,0.49,0.96
17.261921882629395,0.95,-0.25,0.38,1.05
17.270987033843994,0.69,-0.3,0.03,0.75
17.281088829040527,0.65,0.23,-0.37,0.78
17.29569387435913,0.59,0.45,-0.45,0.86
17.29997992515564,0.03,0.55,-0.37,0.66
17.312076091766357,-0.78,0.33,-0.25,0.88
17.320887088775635,-0.68,0.1,-0.59,0.9
17.331119060516357,-0.26,-0.22,-0.9,0.96
17.345614910125732,-0.4,-0.19,-0.76,0.87
17.35004711151123,-0.5,0.18,-0.52,0.74
17.36205005645752,-0.17,0.24,-0.78,0.83
17.370956897735596,0.11,0.25,-1.2,1.23
17.38115882873535,-0.03,0.15,-1.1,1.11
17.3955078125,-0.4,0.26,-0.85,0.97
17.399972915649414,-0.69,0.3,-0.88,1.15
17.412211894989014,-0.71,0.09,-0.86,1.11
17.420984029769897,-0.5,0.03,-0.45,0.67
17.43125581741333,-0.48,-0.06,0.03,0.48
17.44547414779663,-0.33,-0.01,0.47,0.57
17.450106143951416,0.04,0.26,0.74,0.78
17.46203088760376,-0.01,0.18,0.78,0.8
17.471153020858765,-0.09,0.13,0.67,0.68
17.481050968170166,-0.09,0.16,0.51,0.54
17.495484828948975,-0.26,0.38,0.39,0.6
17.500001907348633,-0.71,0.32,0.48,0.91
17.512134075164795,-0.72,0.17,0.45,0.86
17.521026134490967,-0.82,0.01,0.59,1.01
17.53124189376831,-0.87,0.0,0.9,1.25
17.545394897460938,-0.5,-0.23,1.05,1.18
17.55014181137085,0.44,-0.34,0.7,0.89
17.562196016311646,1.15,-0.42,0.33,1.26
17.57114887237549,1.37,-0.36,0.03,1.41
17.581235885620117,1.11,-0.25,-0.22,1.15
17.595510005950928,0.34,-0.41,-0.16,0.55
17.600083827972412,-0.19,-0.32,0.11,0.38
17.612221002578735,-0.38,-0.38,0.37,0.65
17.621121883392334,-0.66,-0.95,0.59,1.29
17.63128399848938,-0.04,-0.72,0.5,0.87
17.645349979400635,0.64,-0.51,0.18,0.83
17.650189876556396,0.76,-0.26,0.0,0.8
17.662179946899414,0.64,0.0,-0.07,0.64
17.67118000984192,0.71,0.11,-0.13,0.73
17.681257009506226,0.57,0.02,-0.34,0.66
17.69536590576172,0.69,0.15,-0.42,0.82
17.700127124786377,0.82,0.49,-0.43,1.04
17.712337970733643,0.45,0.13,-0.67,0.81
17.721110820770264,-0.18,-0.3,-0.77,0.84
17.73136615753174,-0.07,-0.09,-0.87,0.87
17.74523401260376,0.23,0.01,-0.83,0.86
17.75027298927307,0.28,-0.05,-0.65,0.7
17.762167930603027,0.32,-0.18,-0.4,0.54
17.77114200592041,0.33,-0.25,-0.35,0.54
17.78126096725464,0.39,-0.41,-0.45,0.72
17.795233011245728,0.35,-0.45,-0.41,0.7
17.80016303062439,0.45,-0.36,-0.47,0.74
17.812326908111572,0.35,-0.31,-0.51,0.69
17.82121181488037,0.27,-0.39,-0.5,0.68
17.831449031829834,0.17,-0.37,-0.54,0.67
17.845585823059082,-0.02,-0.43,-0.56,0.7
17.850351810455322,-0.1,-0.5,-0.42,0.66
17.86235809326172,-0.04,-0.44,-0.21,0.48
17.87134313583374,0.07,-0.35,-0.22,0.41
17.88142204284668,0.03,-0.38,-0.33,0.5
17.895337104797363,-0.21,-0.58,-0.2,0.64
17.900246143341064,-0.44,-0.82,-0.12,0.93
17.91235113143921,-0.17,-0.35,-0.34,0.51
17.92124605178833,0.13,0.16,-0.5,0.54
17.93142604827881,0.18,0.47,-0.57,0.76
17.945294857025146,-0.16,0.16,-0.3,0.37
17.950356006622314,-0.56,-0.27,0.13,0.63
17.962424993515015,-0.46,-0.09,0.24,0.52
17.97138500213623,-0.49,-0.25,0.5,0.74
17.9825439453125,0.1,-0.17,1.3,1.31
17.995519161224365,0.61,0.07,1.2,1.34
18.000307083129883,0.11,0.29,0.16,0.34
18.012470960617065,0.16,0.22,-0.65,0.7
