time,ax,ay,az,atotal
0.011343002319335938,0.25,0.19,0.91,0.96
0.019405841827392578,0.18,0.29,1.33,1.37
0.02856588363647461,0.34,-0.33,0.51,0.69
0.038591861724853516,0.27,-0.25,0.45,0.58
0.04842185974121094,0.53,0.11,0.98,1.11
0.06119990348815918,0.73,0.14,1.05,1.28
0.06930398941040039,0.51,0.22,0.88,1.04
0.07892990112304688,0.27,0.35,0.73,0.85
0.0885930061340332,0.23,0.24,0.09,0.34
0.09842300415039062,0.58,-0.04,-0.36,0.68
0.11112284660339355,1.11,-0.29,-0.58,1.28
0.11974191665649414,1.01,-0.63,-0.32,1.23
0.12859392166137695,0.63,-0.7,0.49,1.06
0.13873887062072754,0.26,-0.71,1.05,1.29
0.14835786819458008,0.41,-0.55,1.11,1.3
0.16106486320495605,-0.41,-0.24,0.76,0.89
0.16967487335205078,-0.66,0.17,0.14,0.69
0.17913293838500977,-0.64,0.48,-0.68,1.04
0.18889188766479492,-0.53,0.59,-1.3,1.52
0.1986827850341797,-0.35,0.77,-1.33,1.57
0.2120678424835205,-0.18,1.21,-0.4,1.28
0.2198939323425293,-0.63,0.26,-0.96,1.17
0.22895288467407227,-0.79,-0.04,-0.54,0.95
0.23915791511535645,-0.47,0.01,0.25,0.53
0.24873089790344238,-0.37,0.08,0.71,0.8
0.2615647315979004,-0.24,-0.25,0.3,0.45
0.27004003524780273,-0.05,-0.23,-0.1,0.25
0.2792928218841553,-0.18,-0.09,-0.57,0.6
0.2892138957977295,0.08,-0.26,-0.89,0.93
0.2991328239440918,-0.1,-0.36,-0.92,0.99
0.3122420310974121,-0.32,-0.42,-0.37,0.64
0.32013583183288574,-0.2,-0.51,0.19,0.57
0.3292050361633301,0.12,-0.67,0.55,0.87
0.33896684646606445,0.45,-0.78,0.77,1.18
0.349092960357666,0.42,-0.83,0.75,1.19
0.36197686195373535,-0.06,-0.5,0.93,1.05
0.3700590133666992,-0.48,-0.05,1.07,1.17
0.379335880279541,-0.33,0.0,0.65,0.72
0.3892018795013428,-0.17,0.06,0.14,0.22
0.3988168239593506,-0.26,0.16,-0.17,0.34
0.4123997688293457,-0.15,0.04,-0.44,0.46
0.42032480239868164,-0.1,-0.05,-0.53,0.54
0.42938899993896484,0.09,-0.07,-0.51,0.52
0.4392688274383545,0.26,-0.17,-0.45,0.54
0.4490809440612793,0.23,-0.2,-0.26,0.4
0.46236491203308105,0.11,-0.26,0.0,0.28
0.4701237678527832,0.13,-0.36,0.41,0.56
0.47938084602355957,0.14,-0.26,0.91,0.95
0.4894688129425049,0.11,-0.33,0.77,0.84
0.4988138675689697,0.0,-0.24,-4.9,4.9
0.5118958950042725,-0.16,0.42,-3.39,3.41
0.5197858810424805,-1.41,0.04,0.28,1.43
0.5288887023925781,-0.99,0.11,0.96,1.38
0.5390586853027344,-0.01,0.35,2.14,2.16
0.5488648414611816,0.39,0.2,1.58,1.63
0.5617349147796631,0.5,0.5,0.11,0.71
0.5703268051147461,0.08,0.66,-1.05,1.24
0.5792579650878906,-0.45,0.75,-1.65,1.86
0.5903499126434326,-0.82,0.98,-1.7,2.12
0.5987586975097656,-0.46,1.19,-1.82,2.22
0.6115188598632812,-0.13,1.44,-1.84,2.34
0.6199069023132324,-0.09,1.66,-1.21,2.05
0.6288418769836426,0.06,1.84,-0.11,1.84
0.6388418674468994,0.3,1.98,0.84,2.17
0.6486220359802246,0.26,1.99,1.39,2.44
0.6613419055938721,0.21,2.43,1.81,3.03
0.6697688102722168,-0.32,2.87,2.0,3.51
0.6787548065185547,-1.0,3.08,1.78,3.69
0.6887938976287842,-1.72,2.57,1.16,3.3
0.6986038684844971,-2.55,2.39,0.91,3.61
0.7116317749023438,-3.24,3.09,0.68,4.52
0.7200078964233398,-2.76,3.74,0.85,4.72
0.7288148403167725,-1.81,3.31,0.45,3.79
0.7389459609985352,-1.18,2.91,0.25,3.15
0.7487688064575195,-0.85,2.41,-0.02,2.55
0.7612719535827637,-0.18,1.48,-0.48,1.56
0.7697076797485352,0.97,1.18,-0.69,1.67
0.778925895690918,1.08,-0.15,0.19,1.1
0.7888698577880859,1.02,-1.16,0.41,1.59
0.7986087799072266,0.97,-1.38,0.71,1.83
0.8109908103942871,0.25,-2.01,0.91,2.22
0.8194518089294434,-0.26,-2.5,0.72,2.61
0.8287439346313477,-0.46,-3.01,0.44,3.07
0.8387038707733154,-0.52,-3.49,0.52,3.56
0.8484358787536621,-0.36,-3.57,0.56,3.63
0.8611488342285156,-0.39,-3.9,0.4,3.93
0.869675874710083,-0.43,-4.4,0.22,4.42
0.8789608478546143,-0.14,-4.67,-0.18,4.67
0.888934850692749,0.15,-4.71,-0.61,4.75
0.8986740112304688,0.32,-5.06,-0.72,5.12
0.9115157127380371,0.62,-5.5,-0.5,5.55
0.9198379516601562,0.65,-5.79,-0.21,5.83
0.928886890411377,0.04,-6.3,-0.08,6.3
0.9390778541564941,-0.64,-7.18,-0.15,7.21
0.9487698078155518,-0.95,-7.99,-0.35,8.05
0.961331844329834,-1.22,-9.15,-0.89,9.27
0.9697458744049072,-1.53,-10.46,-1.25,10.64
0.9790768623352051,-1.52,-11.69,-1.44,11.87
0.989109992980957,-1.01,-12.55,-1.32,12.65
0.9988207817077637,-0.44,-13.07,-0.81,13.1
1.0113120079040527,0.8,-13.57,-0.37,13.59
1.019765853881836,2.4,-13.89,-0.26,14.09
1.0290307998657227,3.8,-13.58,-0.01,14.1
1.0391628742218018,4.03,-12.65,-0.06,13.27
1.0487818717956543,3.18,-11.65,-0.55,12.08
1.0616438388824463,1.64,-10.59,-1.25,10.78
1.069678783416748,-0.13,-9.0,-1.92,9.2
1.0790729522705078,-1.68,-6.72,-2.76,7.45
1.0890698432922363,-3.15,-3.78,-3.09,5.81
1.0987367630004883,-5.23,-1.12,-3.42,6.34
1.1113920211791992,-6.3,2.37,-2.98,7.36
1.119614839553833,-7.01,6.59,-2.26,9.88
1.129164695739746,-8.1,10.7,-0.11,13.42
1.1396799087524414,-9.92,14.18,2.55,17.49
1.1488358974456787,-10.96,17.24,4.24,20.86
1.1616039276123047,-10.56,19.62,5.21,22.88
1.169717788696289,-8.82,20.43,5.36,22.88
1.1795299053192139,-6.52,19.56,4.41,21.08
1.189469814300537,-4.29,18.61,3.33,19.38
1.1986217498779297,-2.65,17.37,2.9,17.8
1.2119128704071045,-1.28,15.74,2.45,15.98
1.2199828624725342,0.08,13.78,2.02,13.92
1.2292900085449219,1.5,12.16,1.9,12.39
1.239546775817871,2.37,11.18,1.91,11.58
1.249121904373169,2.34,10.5,1.93,10.92
1.2616848945617676,1.52,10.31,1.92,10.59
1.2696657180786133,0.45,10.26,1.73,10.41
1.279444694519043,-0.33,9.7,1.59,9.83
1.2889347076416016,-0.74,9.23,1.56,9.39
1.298534870147705,-1.14,8.75,1.57,8.96
1.3111178874969482,-1.52,7.78,1.13,8.0
1.3196239471435547,-1.68,6.97,0.46,7.18
1.3288397789001465,-2.08,5.92,0.54,6.29
1.338864803314209,-1.99,4.59,0.13,5.0
1.349010944366455,-1.89,3.72,0.01,4.17
1.3612957000732422,-2.19,3.52,-0.09,4.14
1.3696858882904053,-2.66,2.71,-0.24,3.8
1.3790397644042969,-3.1,1.38,-0.23,3.4
1.3891286849975586,-3.35,0.03,-0.13,3.35
1.3992047309875488,-3.34,-1.45,-0.07,3.64
1.4113318920135498,-3.13,-3.0,0.03,4.33
1.4197850227355957,-2.74,-4.29,0.1,5.09
1.429062843322754,-2.17,-5.52,0.26,5.93
1.4389548301696777,-1.72,-6.61,0.21,6.83
1.4492568969726562,-1.42,-7.36,-0.06,7.49
1.4614758491516113,-1.19,-7.93,-0.44,8.03
1.469965934753418,-1.06,-8.43,-0.8,8.53
1.4790358543395996,-1.06,-8.77,-1.04,8.89
1.4893298149108887,-1.19,-8.99,-1.2,9.14
1.4992408752441406,-1.28,-9.23,-1.23,9.39
1.511542797088623,-1.3,-9.4,-1.06,9.54
1.5197958946228027,-1.18,-9.66,-0.82,9.76
1.5291829109191895,-1.06,-10.0,-0.48,10.06
1.5391969680786133,-0.98,-10.21,-0.2,10.25
1.5493927001953125,-0.78,-10.26,-0.01,10.28
1.5614328384399414,-0.63,-10.18,0.04,10.19
1.5701408386230469,-0.77,-10.01,-0.09,10.03
1.5792737007141113,-1.23,-9.91,-0.26,9.98
1.5892398357391357,-1.73,-9.83,-0.41,9.98
1.599327802658081,-1.95,-9.73,-0.53,9.93
1.61183500289917,-2.09,-9.56,-0.6,9.8
1.6198759078979492,-2.17,-9.31,-0.61,9.57
1.6292698383331299,-2.04,-9.1,-0.51,9.33
1.6392648220062256,-1.77,-9.12,-0.39,9.29
1.6493229866027832,-1.71,-9.36,-0.28,9.51
1.6615638732910156,-1.81,-9.56,-0.44,9.73
1.6700518131256104,-1.74,-9.34,-0.76,9.53
1.6792359352111816,-1.74,-8.83,-1.25,9.08
1.6893796920776367,-1.58,-8.28,-2.09,8.68
1.699448823928833,-1.39,-7.64,-2.65,8.2
1.7116599082946777,-1.36,-6.75,-3.0,7.51
1.7202997207641602,-1.63,-5.57,-2.82,6.45
1.729383945465088,-2.22,-4.32,-1.85,5.19
1.7393298149108887,-2.83,-2.31,-1.27,3.86
1.7495017051696777,-3.2,0.8,-0.64,3.36
1.761598825454712,-3.46,4.15,-0.16,5.4
1.770164966583252,-4.03,7.33,-0.29,8.36
1.7840468883514404,-4.61,10.62,-0.77,11.6
1.789827823638916,-5.39,14.11,-1.24,15.15
1.7994928359985352,-5.82,16.81,-0.43,17.79
1.8120718002319336,-5.31,18.01,1.16,18.81
1.820070743560791,-4.7,18.65,1.67,19.3
1.830132007598877,-4.91,18.68,2.81,19.51
1.8402128219604492,-4.85,18.09,3.33,19.02
1.8494019508361816,-4.02,16.48,3.59,17.33
1.8624267578125,-2.41,14.57,3.91,15.27
1.8701238632202148,-0.68,12.85,4.25,13.55
1.8794488906860352,0.56,11.22,4.37,12.05
1.889859914779663,1.0,10.04,4.43,11.01
1.899312973022461,0.98,9.45,4.28,10.42
1.91143798828125,0.73,9.0,4.0,9.87
1.9199957847595215,0.3,8.72,3.6,9.43
1.9293038845062256,-0.16,8.45,3.2,9.03
1.9393339157104492,-0.78,8.22,2.97,8.77
1.9495718479156494,-1.65,8.05,2.75,8.66
1.9616899490356445,-2.36,7.18,2.07,7.83
1.9699907302856445,-2.61,5.77,1.49,6.5
1.9793267250061035,-2.39,4.68,1.3,5.41
1.989365816116333,-2.15,3.83,1.3,4.58
1.99951171875,-1.95,2.68,1.19,3.52
2.012030839920044,-1.88,1.41,1.01,2.55
2.0203328132629395,-2.07,0.56,0.87,2.31
2.0295488834381104,-2.06,-0.2,0.65,2.16
2.039433002471924,-1.83,-1.09,0.24,2.14
2.049546718597412,-1.9,-1.91,-0.09,2.69
2.0616939067840576,-1.95,-2.79,-0.31,3.41
2.0701489448547363,-1.86,-3.59,-0.39,4.06
2.0795516967773438,-1.76,-4.14,-0.3,4.5
2.0895047187805176,-1.6,-4.66,-0.12,4.92
2.0996079444885254,-1.51,-5.08,0.06,5.3
2.1117777824401855,-1.75,-5.19,0.27,5.48
2.120116710662842,-1.94,-5.4,0.27,5.74
2.129488945007324,-1.94,-5.92,-0.07,6.23
2.1397929191589355,-1.85,-6.34,-0.32,6.61
2.1497108936309814,-1.45,-6.39,-0.58,6.57
2.1617980003356934,-0.97,-6.17,-0.87,6.3
2.170053005218506,-0.8,-5.94,-0.96,6.07
2.1795549392700195,-0.83,-5.93,-0.95,6.06
2.1893796920776367,-1.05,-6.02,-1.03,6.19
2.1996498107910156,-1.29,-6.23,-0.98,6.43
2.2115538120269775,-1.28,-6.35,-0.98,6.55
2.220090866088867,-0.9,-6.31,-1.04,6.45
2.229428768157959,-0.42,-6.32,-1.01,6.41
2.239377975463867,-0.02,-6.48,-0.82,6.53
2.2494149208068848,0.15,-6.63,-0.82,6.68
2.261760711669922,0.03,-6.78,-1.03,6.85
2.270040988922119,-0.2,-7.03,-1.28,7.14
2.2794668674468994,-0.34,-7.16,-1.44,7.31
2.2894840240478516,-0.32,-6.99,-1.55,7.16
2.2995357513427734,-0.12,-6.77,-1.59,6.95
2.3118228912353516,0.12,-6.62,-1.55,6.8
2.3201217651367188,0.26,-6.43,-1.66,6.64
2.3293299674987793,0.06,-6.16,-1.66,6.38
2.3397128582000732,-0.4,-5.78,-1.42,5.96
2.349857807159424,-0.7,-5.54,-1.29,5.73
2.3619298934936523,-1.02,-5.59,-1.15,5.79
2.370447874069214,-1.42,-5.78,-1.09,6.05
2.3797097206115723,-1.74,-5.88,-1.17,6.24
2.389765739440918,-2.08,-5.92,-1.19,6.38
2.4000329971313477,-2.0,-6.01,-1.49,6.5
2.412324905395508,-1.6,-5.93,-2.07,6.48
2.420398712158203,-1.15,-5.5,-2.47,6.13
2.4297049045562744,-0.74,-5.06,-2.6,5.73
2.4394149780273438,-0.62,-5.07,-2.4,5.64
2.4496328830718994,-0.87,-5.38,-1.46,5.64
2.4617719650268555,-1.18,-5.53,-0.04,5.65
2.470181941986084,-1.23,-5.6,0.65,5.77
2.479588031768799,-1.54,-5.17,0.79,5.45
2.4895758628845215,-1.48,-3.8,0.1,4.07
2.4997408390045166,-1.17,-2.37,-0.88,2.78
2.5118789672851562,-1.4,-1.07,-1.19,2.12
2.5201797485351562,-1.68,0.43,-0.94,1.97
2.5332558155059814,-2.2,2.53,-0.25,3.36
2.5394628047943115,-2.97,4.5,0.57,5.42
2.549696922302246,-3.12,6.4,0.8,7.16
2.5619759559631348,-3.27,8.41,0.65,9.04
2.570185899734497,-3.63,10.83,0.61,11.43
2.580148696899414,-4.61,13.45,0.34,14.22
2.590007781982422,-5.64,15.61,1.68,16.68
2.599660873413086,-6.37,17.07,3.25,18.5
2.611927032470703,-6.12,17.81,5.05,19.49
2.620321750640869,-5.48,17.33,6.99,19.47
2.629828929901123,-4.37,15.94,7.87,18.3
2.6399450302124023,-3.18,14.07,8.33,16.65
2.649487018585205,-1.68,12.72,7.89,15.06
2.6614248752593994,-0.72,10.59,6.6,12.49
2.670076847076416,0.13,8.78,5.1,10.15
2.6796908378601074,1.09,7.98,4.38,9.16
2.689621925354004,1.13,7.99,3.96,8.98
2.6996548175811768,0.55,7.72,3.25,8.39
2.7117888927459717,-0.1,6.98,2.57,7.43
2.7201578617095947,-0.43,6.64,2.3,7.04
2.729698896408081,-0.84,6.45,2.13,6.84
2.7395288944244385,-1.09,5.8,1.89,6.19
2.7497329711914062,-1.0,5.05,1.74,5.43
2.761772871017456,-0.9,4.33,1.67,4.72
2.770505905151367,-0.93,3.33,1.55,3.78
2.7797658443450928,-1.2,2.35,1.18,2.89
2.7898030281066895,-1.65,1.63,0.77,2.44
2.799874782562256,-2.11,1.23,0.27,2.45
2.8117868900299072,-2.59,0.94,-0.53,2.8
2.820417881011963,-2.92,0.33,-1.16,3.15
2.8297057151794434,-3.12,-0.49,-1.32,3.42
2.8396718502044678,-3.05,-1.22,-1.0,3.43
2.8498120307922363,-2.72,-2.02,-0.52,3.42
2.8617968559265137,-2.39,-2.96,-0.17,3.8
2.8702917098999023,-2.25,-3.9,0.03,4.5
2.8798117637634277,-2.28,-4.76,0.12,5.27
2.8896408081054688,-2.24,-5.41,0.11,5.85
2.899807929992676,-2.22,-5.79,0.06,6.2
2.911715030670166,-2.4,-5.95,0.06,6.41
2.9204540252685547,-2.76,-6.01,-0.17,6.61
2.929769992828369,-2.82,-6.27,-0.75,6.91
2.9397687911987305,-2.52,-6.76,-1.36,7.34
2.950000762939453,-2.16,-7.33,-1.84,7.86
2.9621429443359375,-1.89,-7.71,-2.25,8.25
2.9704647064208984,-1.48,-8.02,-2.44,8.51
2.9800329208374023,-0.94,-8.46,-2.38,8.83
2.9899368286132812,-0.5,-8.78,-2.19,9.06
3.0002479553222656,-0.2,-8.97,-1.9,9.17
3.0125818252563477,-0.16,-8.93,-1.68,9.08
3.0207598209381104,-0.37,-8.74,-1.58,8.88
3.0300958156585693,-0.49,-8.62,-1.63,8.78
3.0399818420410156,-0.48,-8.7,-1.76,8.88
3.0501437187194824,-0.35,-8.78,-1.91,8.99
3.062246799468994,-0.23,-8.71,-2.13,8.96
3.070375919342041,-0.23,-8.45,-2.35,8.77
3.0800328254699707,-0.28,-8.11,-2.37,8.45
3.0898008346557617,-0.6,-7.66,-2.37,8.04
3.0999317169189453,-0.94,-7.25,-2.27,7.65
3.1121459007263184,-1.17,-7.0,-2.04,7.38
3.1205687522888184,-1.29,-6.86,-1.79,7.2
3.1297707557678223,-1.19,-6.97,-1.71,7.27
3.13987398147583,-1.11,-7.17,-1.71,7.45
3.150059700012207,-1.01,-7.13,-1.89,7.44
3.1618528366088867,-1.19,-6.85,-2.2,7.29
3.1731576919555664,-1.53,-6.31,-2.33,6.89
3.179950714111328,-1.86,-5.37,-2.28,6.12
3.1899356842041016,-2.04,-4.38,-1.86,5.17
3.200040817260742,-2.47,-3.17,-1.13,4.17
3.2119948863983154,-3.38,-1.78,-0.33,3.83
3.220561981201172,-4.34,-0.78,0.21,4.41
3.2299089431762695,-4.96,-0.49,0.35,4.99
3.239560842514038,-4.44,-1.07,0.35,4.58
3.2498838901519775,-3.28,-1.49,0.32,3.61
3.2618958950042725,-2.12,-1.42,1.03,2.75
3.2704508304595947,-1.49,-0.25,2.09,2.57
3.279968738555908,-1.62,2.39,2.75,3.98
3.2898459434509277,-2.78,5.24,2.98,6.63
3.2999777793884277,-4.09,7.64,2.63,9.05
3.3122358322143555,-4.98,9.87,2.4,11.31
3.3212180137634277,-5.05,11.63,2.28,12.88
3.332700729370117,-4.59,12.99,2.23,13.95
3.340543746948242,-4.23,14.1,2.58,14.94
3.350104808807373,-4.15,14.5,2.55,15.29
3.362661838531494,-3.66,15.07,2.51,15.7
3.371039867401123,-3.14,14.94,2.62,15.48
3.382772922515869,-1.81,14.44,2.02,14.69
3.3903348445892334,-0.56,13.4,1.4,13.48
3.399876832962036,0.65,12.09,0.93,12.14
3.411954879760742,1.42,10.75,0.71,10.86
3.420353889465332,1.75,9.46,1.0,9.67
3.429874897003174,1.92,8.54,1.61,8.9
3.4397897720336914,1.76,8.0,2.24,8.49
3.44997501373291,1.45,7.73,2.75,8.33
3.461836814880371,0.83,7.51,2.99,8.12
3.470554828643799,-0.23,7.28,2.92,7.84
3.480097770690918,-1.31,6.91,2.61,7.5
3.489910840988159,-2.11,6.57,2.5,7.33
3.499969959259033,-2.22,5.99,2.4,6.82
3.5122547149658203,-2.19,5.13,2.17,5.98
3.520740032196045,-2.23,4.19,1.72,5.04
3.5327048301696777,-2.11,3.1,1.03,3.88
3.540036916732788,-1.91,2.23,0.59,2.99
3.550117015838623,-1.59,1.46,0.33,2.18
3.562417984008789,-1.36,0.77,0.19,1.57
3.570821762084961,-1.52,0.33,-0.02,1.55
3.5800788402557373,-1.73,0.04,-0.24,1.74
3.5902538299560547,-1.85,-0.44,-0.36,1.93
3.5999369621276855,-2.1,-0.95,-0.37,2.33
3.6123318672180176,-2.54,-1.43,-0.34,2.93
3.620842933654785,-2.91,-2.12,-0.34,3.61
3.6327009201049805,-3.09,-2.89,-0.45,4.25
3.640143871307373,-2.96,-3.54,-0.54,4.64
3.649897813796997,-2.54,-3.96,-0.44,4.72
3.662247896194458,-1.96,-4.21,-0.23,4.64
3.6709327697753906,-1.45,-4.36,-0.13,4.59
3.683123826980591,-1.33,-4.54,-0.21,4.73
3.690392017364502,-1.73,-4.82,-0.44,5.13
3.700049877166748,-2.17,-5.19,-0.74,5.67
3.712718963623047,-2.3,-5.55,-0.96,6.08
3.721181869506836,-1.97,-5.89,-1.03,6.29
3.7331137657165527,-1.49,-6.14,-1.12,6.41
3.740285873413086,-1.24,-6.29,-1.18,6.51
3.7499608993530273,-1.0,-6.57,-1.21,6.75
3.762512683868408,-0.74,-7.0,-1.17,7.13
3.7709460258483887,-0.59,-7.34,-1.08,7.44
3.7826168537139893,-0.44,-7.52,-1.05,7.6
3.790235996246338,-0.27,-7.65,-1.07,7.72
3.7998757362365723,-0.33,-7.75,-1.2,7.84
3.8124988079071045,-0.51,-7.85,-1.39,7.98
3.8207898139953613,-0.49,-8.03,-1.53,8.18
3.832855701446533,-0.23,-8.15,-1.71,8.33
3.840178966522217,-0.02,-7.98,-1.82,8.18
3.8498806953430176,0.06,-7.69,-1.84,7.9
3.8623647689819336,-0.02,-7.43,-1.71,7.62
3.8709678649902344,-0.31,-7.09,-1.5,7.25
3.882798910140991,-0.71,-6.78,-1.29,6.93
3.890300750732422,-1.38,-6.59,-0.99,6.8
3.8999338150024414,-2.1,-6.43,-0.82,6.81
3.9122629165649414,-2.71,-6.43,-0.92,7.03
3.9211819171905518,-3.02,-6.76,-1.28,7.51
3.9331068992614746,-2.92,-7.15,-1.91,7.95
3.9403839111328125,-2.61,-7.47,-2.45,8.28
3.9501566886901855,-2.0,-7.84,-2.64,8.51
3.9626598358154297,-1.07,-8.25,-2.44,8.66
3.9709787368774414,-0.09,-8.56,-2.15,8.82
3.9832448959350586,0.49,-8.37,-2.28,8.68
3.9905099868774414,0.56,-7.25,-2.86,7.81
4.000125885009766,-0.33,-5.59,-3.38,6.54
4.012686729431152,-1.56,-3.75,-3.44,5.32
4.021178722381592,-2.57,-1.81,-2.65,4.11
4.0333147048950195,-4.07,0.45,-1.39,4.32
4.040205955505371,-5.37,2.24,-0.12,5.81
4.050230026245117,-6.0,3.12,0.85,6.81
4.062682867050171,-5.81,3.4,1.59,6.91
4.0709967613220215,-4.76,3.67,2.45,6.49
4.083046913146973,-3.64,4.29,3.71,6.73
4.090192794799805,-2.8,5.55,5.14,8.06
4.100010871887207,-3.36,7.78,5.74,10.23
4.112505912780762,-4.89,10.18,5.15,12.41
4.122647762298584,-5.74,12.31,3.62,14.05
4.133457899093628,-5.65,13.85,2.21,15.12
4.140720844268799,-5.13,15.18,1.41,16.08
4.149820804595947,-5.27,15.99,1.44,16.89
4.162587881088257,-4.38,16.31,1.81,16.98
4.171315908432007,-3.17,15.39,2.63,15.93
4.183129787445068,-1.81,13.91,2.89,14.32
4.190687894821167,-0.44,12.54,3.05,12.91
4.199985027313232,0.46,11.3,2.86,11.66
4.212333917617798,1.0,10.19,2.32,10.49
4.220894813537598,1.23,9.36,1.77,9.6
4.232854843139648,1.17,9.24,1.37,9.41
4.240324020385742,0.63,9.35,1.1,9.43
4.249926805496216,-0.22,9.19,0.83,9.23
4.262485980987549,-0.88,9.05,0.71,9.12
4.270907878875732,-1.25,8.77,0.77,8.89
4.283082008361816,-1.65,8.13,0.83,8.33
4.290345907211304,-2.0,7.22,0.95,7.55
4.300257682800293,-2.34,6.3,1.34,6.85
4.312572956085205,-2.44,5.42,1.8,6.21
4.320940017700195,-2.36,4.4,1.97,5.36
4.332874774932861,-2.42,3.46,1.84,4.6
4.340260028839111,-2.51,2.45,1.48,3.8
4.350092887878418,-2.52,1.42,1.07,3.08
4.3623878955841064,-2.42,0.66,0.9,2.66
4.371057987213135,-2.45,0.1,0.77,2.57
4.383103847503662,-2.74,-0.54,0.2,2.79
4.390427827835083,-3.27,-1.21,-0.46,3.51
4.400115966796875,-3.61,-1.79,-0.69,4.08
4.412684917449951,-3.66,-2.34,-0.77,4.41
4.42094087600708,-3.54,-3.11,-0.72,4.76
4.432976722717285,-3.41,-4.09,-0.39,5.33
4.440282821655273,-3.38,-4.95,-0.24,5.99
4.450186729431152,-3.32,-5.92,-0.29,6.79
4.462626934051514,-3.0,-6.98,-0.34,7.6
4.471236705780029,-2.34,-7.92,-0.58,8.27
4.483337879180908,-1.57,-8.59,-1.02,8.79
4.4905548095703125,-0.79,-8.99,-1.43,9.13
4.500436782836914,-0.13,-9.28,-1.77,9.44
4.513251781463623,0.27,-9.34,-2.13,9.58
4.52127480506897,0.35,-9.17,-2.3,9.46
4.533339977264404,0.19,-8.91,-2.37,9.22
4.540521860122681,-0.23,-8.65,-2.36,8.96
4.550382852554321,-0.71,-8.57,-2.35,8.91
4.563033819198608,-0.91,-8.68,-2.23,9.0
4.571054935455322,-0.82,-8.76,-2.07,9.03
4.583317756652832,-0.64,-8.86,-1.84,9.07
4.5904669761657715,-0.37,-8.94,-1.59,9.08
4.6003947257995605,-0.01,-9.01,-1.4,9.11
4.612548828125,0.26,-9.01,-1.31,9.1
4.621044874191284,0.27,-8.84,-1.31,8.94
4.633184909820557,-0.06,-8.45,-1.35,8.55
4.640390872955322,-0.53,-7.99,-1.4,8.12
4.650347709655762,-1.11,-7.48,-1.48,7.7
4.662968873977661,-1.78,-6.84,-1.39,7.2
4.671076774597168,-2.41,-6.22,-1.29,6.79
4.683138847351074,-2.7,-5.83,-1.25,6.54
4.690515995025635,-2.96,-5.75,-1.13,6.56
4.700337886810303,-2.89,-6.03,-1.11,6.77
4.7130937576293945,-2.4,-6.53,-1.05,7.03
4.721108913421631,-1.72,-6.86,-1.12,7.16
4.733073711395264,-0.98,-6.99,-1.42,7.19
4.740469932556152,-0.48,-6.91,-1.59,7.1
4.75032377243042,-0.19,-6.37,-1.82,6.62
4.762475967407227,-0.18,-5.67,-2.17,6.07
4.7712109088897705,-0.63,-4.87,-2.05,5.32
4.783218860626221,-1.29,-3.84,-1.79,4.42
4.790527820587158,-2.26,-2.59,-1.65,3.81
4.800391912460327,-3.69,-0.96,-0.8,3.89
4.8130669593811035,-4.26,0.83,0.87,4.42
4.8212690353393555,-4.0,1.96,2.21,4.97
4.833382844924927,-3.65,2.27,2.39,4.91
4.840504884719849,-3.4,2.85,1.87,4.81
4.850416898727417,-3.59,4.46,1.29,5.86
4.863027811050415,-3.87,6.07,1.66,7.38
4.871230840682983,-4.7,8.07,3.02,9.81
4.883802890777588,-5.31,10.57,3.89,12.45
4.891165733337402,-5.7,12.57,4.14,14.4
4.900528907775879,-6.15,14.17,3.76,15.89
4.915623903274536,-5.54,16.27,2.26,17.33
4.921985864639282,-4.99,17.52,2.16,18.34
4.93392276763916,-4.64,17.13,1.35,17.79
4.94091272354126,-3.51,15.94,1.35,16.37
4.9504828453063965,-1.82,14.34,2.02,14.59
4.963209867477417,-0.02,12.64,2.65,12.91
4.971797943115234,0.95,11.07,3.04,11.51
4.983305931091309,1.39,9.66,3.07,10.23
4.9905829429626465,1.59,8.89,2.97,9.5
5.000279903411865,1.4,8.68,2.81,9.23
5.013132810592651,0.78,8.71,2.48,9.08
5.021321773529053,-0.01,8.89,2.17,9.15
5.033421993255615,-0.53,8.9,1.81,9.09
5.040559768676758,-0.73,8.8,1.39,8.93
5.050343036651611,-0.99,8.47,0.94,8.57
5.06296968460083,-1.67,8.03,0.78,8.23
5.0714898109436035,-2.4,7.33,0.79,7.75
5.083923816680908,-2.64,6.22,0.81,6.8
5.090847969055176,-2.56,5.16,1.02,5.84
5.100629806518555,-2.7,4.56,1.18,5.42
5.1133458614349365,-3.21,3.77,0.99,5.04
5.121501922607422,-3.58,2.81,0.81,4.62
5.133769989013672,-3.65,2.05,0.9,4.28
5.140738010406494,-3.53,1.13,1.0,3.83
5.150808811187744,-3.66,0.16,1.01,3.8
5.163311004638672,-3.79,-0.98,0.85,4.0
5.171464920043945,-3.99,-2.19,0.64,4.59
5.183611869812012,-4.25,-3.2,0.54,5.34
5.190706729888916,-4.0,-4.22,0.38,5.82
5.200563907623291,-3.46,-5.29,0.12,6.32
5.213051795959473,-3.1,-6.2,-0.19,6.93
5.2213828563690186,-3.0,-6.83,-0.54,7.47
5.233575820922852,-2.81,-7.35,-0.9,7.92
5.24064302444458,-2.73,-7.8,-1.14,8.34
5.250584840774536,-2.67,-8.09,-1.25,8.61
5.263552904129028,-2.33,-8.26,-1.38,8.69
5.271443843841553,-1.83,-8.28,-1.51,8.61
5.283689975738525,-1.4,-8.17,-1.61,8.44
5.290788888931274,-1.1,-8.13,-1.73,8.38
5.300613880157471,-1.0,-8.2,-1.84,8.46
5.313262939453125,-1.18,-8.22,-1.84,8.5
5.321401834487915,-1.42,-8.14,-1.91,8.48
5.333559989929199,-1.52,-8.21,-1.82,8.54
5.3407368659973145,-1.5,-8.35,-1.58,8.62
5.350603818893433,-1.48,-8.34,-1.72,8.64
5.363336801528931,-1.49,-8.31,-1.99,8.67
5.3714189529418945,-1.3,-8.38,-2.05,8.72
5.383615016937256,-1.06,-8.24,-2.08,8.56
5.390682697296143,-0.74,-8.11,-2.08,8.4
5.400600910186768,-0.43,-8.15,-1.85,8.36
5.413177013397217,-0.13,-8.16,-1.65,8.32
5.4215028285980225,0.12,-8.03,-1.54,8.17
5.433900833129883,0.14,-7.72,-1.5,7.86
5.44075083732605,-0.16,-7.28,-1.46,7.42
5.450680732727051,-0.59,-6.84,-1.59,7.04
5.463137865066528,-1.15,-6.39,-1.67,6.7
5.471406936645508,-1.8,-5.98,-1.46,6.41
5.48379373550415,-2.28,-5.66,-1.05,6.19
5.490825891494751,-2.77,-5.45,-0.6,6.14
5.500649929046631,-3.13,-5.4,-0.24,6.24
5.513221740722656,-3.12,-5.48,-0.04,6.3
5.5213518142700195,-2.66,-5.48,-0.18,6.09
5.53407096862793,-2.04,-5.4,-0.52,5.79
5.540806770324707,-1.66,-5.13,-0.93,5.47
5.55082893371582,-1.25,-4.9,-1.39,5.24
5.563224792480469,-0.79,-5.0,-1.7,5.33
5.571609973907471,-0.7,-4.87,-1.99,5.3
5.583817958831787,-1.03,-4.16,-2.0,4.72
5.590920925140381,-1.79,-3.11,-1.58,3.92
5.60074782371521,-2.68,-1.98,-1.32,3.58
5.61354398727417,-3.24,-0.91,-0.95,3.49
5.621500015258789,-2.79,0.35,-0.54,2.86
5.633986949920654,-2.0,2.55,0.28,3.25
5.640929698944092,-2.47,5.21,1.74,6.02
5.650716781616211,-3.19,9.01,2.31,9.83
5.6636269092559814,-4.84,12.85,4.01,14.3
5.672061920166016,-7.33,15.33,4.54,17.58
5.684212684631348,-8.61,16.81,4.01,19.3
5.6914567947387695,-8.03,18.26,2.98,20.16
5.700790882110596,-5.71,18.66,3.27,19.78
5.71360182762146,-4.62,17.37,2.86,18.2
5.7220869064331055,-3.21,15.96,2.29,16.43
5.733901023864746,-2.06,14.13,2.25,14.45
5.741444826126099,-0.68,12.22,2.35,12.46
5.750918865203857,0.48,10.62,2.47,10.91
5.763234853744507,0.95,9.53,2.53,9.9
5.7715840339660645,1.18,8.75,2.42,9.15
5.783910751342773,1.42,8.28,2.28,8.7
5.791050910949707,1.19,8.27,2.43,8.7
5.800817966461182,0.65,8.35,2.4,8.71
5.813643932342529,-0.18,8.56,2.06,8.8
5.821668863296509,-1.11,8.95,1.81,9.19
5.833901882171631,-1.74,9.07,1.44,9.34
5.840921878814697,-2.31,8.69,0.8,9.02
5.850836753845215,-2.5,7.89,0.51,8.29
5.863714694976807,-2.23,7.36,0.62,7.71
5.871804714202881,-2.16,6.66,0.75,7.04
5.884212017059326,-2.45,5.54,0.58,6.08
5.891165733337402,-2.92,4.64,0.43,5.49
5.901079893112183,-3.41,3.9,0.44,5.19
5.91384482383728,-3.64,2.65,0.58,4.53
5.922019004821777,-3.45,1.22,0.63,3.71
5.934115886688232,-3.09,-0.08,0.63,3.15
5.941375732421875,-3.11,-1.07,0.56,3.33
5.951076984405518,-3.68,-1.91,0.42,4.16
5.96386194229126,-4.13,-2.82,0.57,5.03
5.971989870071411,-4.04,-3.75,0.48,5.53
5.984357833862305,-3.77,-4.68,0.1,6.01
5.991366863250732,-3.53,-5.67,-0.36,6.68
6.001039981842041,-3.09,-6.51,-0.76,7.24
6.01409387588501,-2.48,-7.14,-1.1,7.63
6.022013902664185,-1.86,-7.52,-1.39,7.87
6.034584999084473,-1.45,-7.73,-1.55,8.01
6.041281700134277,-1.29,-7.89,-1.51,8.13
6.051271915435791,-1.26,-7.86,-1.42,8.08
6.064270973205566,-1.36,-7.74,-1.27,7.96
6.072257995605469,-1.42,-7.79,-1.07,7.99
6.084978818893433,-1.7,-7.77,-1.04,8.02
6.091545820236206,-2.07,-7.63,-1.2,7.99
6.1013288497924805,-2.18,-7.74,-1.29,8.14
6.114255905151367,-2.26,-7.86,-1.27,8.27
6.122287750244141,-2.36,-7.87,-1.25,8.31
6.134414911270142,-2.28,-8.05,-1.12,8.44
6.141333818435669,-2.03,-8.25,-1.06,8.56
6.151175022125244,-1.86,-8.23,-1.18,8.51
6.164151906967163,-1.66,-8.17,-1.35,8.44
6.17228889465332,-1.55,-8.22,-1.44,8.48
6.184464931488037,-1.65,-8.21,-1.5,8.5
6.191506862640381,-1.64,-8.17,-1.57,8.47
6.20126485824585,-1.33,-8.2,-1.64,8.46
6.213988780975342,-1.06,-8.06,-1.69,8.3
6.222144842147827,-0.94,-7.78,-1.76,8.03
6.234084844589233,-1.1,-7.42,-1.82,7.71
6.241150856018066,-1.55,-6.95,-1.85,7.35
6.251070976257324,-1.97,-6.54,-1.8,7.06
6.2638068199157715,-2.28,-6.08,-1.74,6.72
6.2719197273254395,-2.39,-5.57,-1.7,6.29
6.283905982971191,-2.2,-5.27,-1.57,5.92
6.2912678718566895,-1.83,-5.13,-1.36,5.61
6.301072835922241,-1.53,-5.25,-1.18,5.59
6.313838958740234,-1.27,-5.71,-1.08,5.94
6.32186484336853,-1.04,-6.04,-0.92,6.19
6.3339598178863525,-1.23,-5.68,-0.77,5.86
6.34128475189209,-1.67,-5.03,-0.48,5.32
6.351080894470215,-2.31,-4.23,-0.17,4.82
6.363914966583252,-2.86,-3.34,0.03,4.39
6.3721537590026855,-2.78,-2.64,-0.18,3.83
6.384042739868164,-2.81,-1.67,-0.89,3.38
6.391356945037842,-2.78,-0.47,-1.67,3.27
6.403092861175537,-2.52,0.53,-2.07,3.3
6.4138429164886475,-2.23,1.72,-2.16,3.54
6.421994686126709,-2.01,2.9,-1.6,3.87
6.433933734893799,-2.5,4.31,-0.4,4.99
6.441298007965088,-3.59,6.32,0.9,7.32
6.451119899749756,-4.5,8.38,2.16,9.75
6.4639058113098145,-5.07,10.6,2.81,12.08
6.472424030303955,-5.74,12.45,2.8,13.99
6.483867883682251,-5.99,13.54,2.7,15.04
6.491796970367432,-5.16,13.68,3.19,14.96
6.5011608600616455,-3.94,13.69,4.41,14.91
6.51422381401062,-2.9,13.74,5.18,14.96
6.522512912750244,-2.57,13.59,4.97,14.69
6.533782958984375,-2.24,13.28,4.12,14.08
6.5417869091033936,-1.57,12.58,3.16,13.06
6.551158905029297,-0.78,11.63,2.5,11.92
6.564195871353149,0.0,10.56,2.45,10.84
6.571980953216553,0.56,9.75,2.91,10.19
6.583716869354248,0.26,8.94,3.49,9.6
6.591446876525879,-0.22,7.98,3.58,8.74
6.6012139320373535,-0.31,7.55,3.44,8.3
6.614256858825684,0.08,7.37,3.01,7.96
6.622287750244141,0.24,7.14,2.3,7.5
6.633976936340332,0.23,7.01,1.57,7.18
6.641464710235596,0.18,6.66,1.14,6.75
6.651237964630127,0.23,6.0,0.89,6.07
6.66386079788208,-0.23,5.48,0.7,5.52
6.672058820724487,-0.73,5.02,0.44,5.09
6.683588981628418,-1.14,4.22,0.18,4.37
6.6915459632873535,-1.27,3.5,0.26,3.73
6.701265811920166,-1.13,2.64,0.47,2.9
6.714087009429932,-1.1,1.54,0.64,1.99
6.72236180305481,-1.33,0.63,0.85,1.69
6.733747959136963,-1.6,-0.09,1.07,1.92
6.741454839706421,-1.76,-0.56,1.28,2.24
6.751667022705078,-1.88,-0.81,1.38,2.46
6.763940811157227,-1.95,-1.29,1.21,2.63
6.77215576171875,-2.24,-1.94,0.98,3.12
6.7836878299713135,-2.63,-2.72,0.62,3.83
6.791613817214966,-2.8,-3.64,0.2,4.59
6.800996780395508,-2.8,-4.55,0.2,5.34
6.813831806182861,-2.89,-5.3,0.29,6.04
6.822183847427368,-2.87,-5.77,0.33,6.45
6.83361291885376,-2.57,-6.19,0.14,6.7
6.841481685638428,-2.2,-6.3,-0.22,6.67
6.851349830627441,-1.7,-6.34,-0.5,6.58
6.864161968231201,-1.44,-6.16,-0.96,6.39
6.872339725494385,-1.36,-6.12,-1.37,6.41
6.883742809295654,-1.27,-6.35,-1.61,6.67
6.8916778564453125,-1.1,-6.56,-1.93,6.92
6.901496887207031,-0.88,-6.69,-2.14,7.07
6.914243698120117,-0.76,-6.67,-2.27,7.08
6.922490835189819,-0.73,-6.61,-2.28,7.03
6.933835029602051,-0.67,-6.53,-2.16,6.91
6.941640853881836,-0.86,-6.48,-1.86,6.79
6.951562881469727,-1.16,-6.6,-1.48,6.86
6.96442985534668,-1.31,-6.75,-1.41,7.01
6.9724578857421875,-1.38,-6.99,-1.44,7.26
6.983924865722656,-1.35,-7.1,-1.56,7.39
6.9917778968811035,-1.12,-7.14,-1.84,7.45
7.001575946807861,-1.0,-7.17,-1.99,7.5
7.014369964599609,-0.9,-7.09,-2.08,7.44
7.02251672744751,-0.52,-7.05,-1.98,7.34
7.033739805221558,-0.33,-6.88,-1.65,7.08
7.041898727416992,-0.55,-6.59,-1.23,6.72
7.05152702331543,-1.03,-6.54,-1.0,6.69
7.064408779144287,-1.55,-6.72,-0.96,6.96
7.072603702545166,-1.82,-6.96,-1.12,7.28
7.0840277671813965,-1.88,-7.09,-1.45,7.47
7.09192681312561,-1.99,-6.96,-1.7,7.43
7.101593971252441,-2.09,-6.6,-1.82,7.15
7.114568710327148,-1.93,-6.06,-1.96,6.65
7.12260890007019,-1.48,-5.69,-2.07,6.23
7.134126901626587,-0.91,-5.5,-2.16,5.97
7.141808986663818,-0.59,-5.2,-2.13,5.65
7.151638984680176,-0.78,-4.72,-1.96,5.16
7.164794921875,-1.57,-3.77,-1.43,4.32
7.17272686958313,-2.78,-2.55,-0.65,3.82
7.183461904525757,-4.19,-1.44,-0.16,4.43
7.191888809204102,-5.28,-0.25,0.15,5.28
7.201584815979004,-4.86,0.85,0.58,4.96
7.214641809463501,-3.49,1.72,0.8,3.97
7.222756862640381,-2.86,2.3,0.89,3.77
7.233282804489136,-2.77,2.52,0.88,3.84
7.241738796234131,-2.51,3.15,1.02,4.15
7.251539707183838,-2.06,4.48,1.18,5.07
7.2643537521362305,-2.23,6.52,0.78,6.93
7.272454738616943,-3.17,9.11,0.71,9.67
7.283226013183594,-3.97,11.42,1.49,12.18
7.2922399044036865,-4.2,12.92,2.4,13.79
7.3015007972717285,-4.17,13.91,3.23,14.87
7.31473970413208,-4.49,14.35,4.14,15.59
7.3226237297058105,-4.34,14.47,4.41,15.73
7.333316802978516,-3.09,14.42,4.23,15.34
7.341943740844727,-1.4,13.52,3.64,14.07
7.351769924163818,0.19,12.08,2.81,12.4
7.364414691925049,1.16,10.78,2.24,11.07
7.372550964355469,1.51,9.45,1.95,9.76
7.382964849472046,1.6,8.48,1.92,8.84
7.391860008239746,1.34,8.28,1.91,8.6
7.401557922363281,0.95,8.36,1.65,8.57
7.414597988128662,0.55,8.42,1.37,8.54
7.422706842422485,0.46,8.3,1.34,8.42
7.433035850524902,0.11,7.94,1.43,8.06
7.4419989585876465,-0.58,7.56,1.71,7.77
7.451680898666382,-1.1,7.25,1.94,7.58
7.464267730712891,-1.42,6.98,2.04,7.4
7.472445964813232,-1.74,6.34,1.61,6.76
7.4830217361450195,-2.15,5.06,0.85,5.56
7.491788864135742,-2.06,3.87,0.23,4.39
7.501626014709473,-1.55,3.01,-0.11,3.38
7.51436185836792,-1.25,2.4,-0.11,2.7
7.5225677490234375,-1.29,1.76,-0.06,2.18
7.5329108238220215,-1.6,0.83,0.05,1.8
7.541863918304443,-2.21,-0.05,0.02,2.21
7.551693916320801,-2.92,-1.07,-0.07,3.11
7.564529895782471,-3.39,-2.19,-0.22,4.04
7.572749853134155,-3.38,-3.13,-0.32,4.61
7.583193778991699,-3.22,-3.67,-0.28,4.89
7.592162847518921,-3.21,-4.14,-0.21,5.24
7.601906776428223,-2.76,-4.9,-0.2,5.62
7.614902019500732,-2.07,-5.57,-0.4,5.95
7.622811794281006,-1.8,-6.14,-0.72,6.43
7.6329827308654785,-1.62,-6.78,-1.08,7.05
7.641957759857178,-1.42,-7.29,-1.31,7.54
7.6517298221588135,-1.17,-7.55,-1.45,7.77
7.664365768432617,-0.75,-7.71,-1.52,7.89
7.672641754150391,-0.52,-7.7,-1.62,7.88
7.682731866836548,-0.48,-7.53,-1.6,7.71
7.692080020904541,-0.7,-7.47,-1.51,7.65
7.701769828796387,-1.16,-7.51,-1.32,7.71
7.714469909667969,-1.44,-7.58,-1.07,7.78
7.722594738006592,-1.45,-7.73,-0.88,7.91
7.732708930969238,-1.28,-7.86,-0.72,7.99
7.741911888122559,-0.95,-7.94,-0.69,8.02
7.751612901687622,-0.63,-7.97,-0.69,8.02
7.764500856399536,-0.37,-7.85,-0.72,7.89
7.772525787353516,-0.32,-7.54,-0.72,7.58
7.782964706420898,-0.49,-7.15,-0.7,7.2
7.7921977043151855,-0.72,-6.68,-0.73,6.75
7.801999807357788,-1.23,-6.07,-0.78,6.24
7.8146748542785645,-1.87,-5.39,-0.86,5.76
7.822702884674072,-2.32,-4.95,-0.86,5.53
7.8331568241119385,-2.33,-4.92,-0.67,5.48
7.842257022857666,-2.0,-5.03,-0.31,5.42
7.852010726928711,-1.55,-5.19,0.02,5.41
7.864709854125977,-1.33,-5.28,0.16,5.44
7.872730731964111,-1.26,-5.13,-0.11,5.28
7.882987022399902,-1.02,-4.97,-0.63,5.11
7.892099857330322,-0.58,-4.88,-1.14,5.04
7.902029991149902,-0.34,-4.7,-1.57,4.96
7.9146728515625,-0.72,-4.17,-1.99,4.67
7.922943830490112,-1.55,-3.42,-2.25,4.37
7.932974815368652,-2.35,-2.57,-2.24,4.14
7.9423158168792725,-2.71,-1.61,-1.99,3.72
7.951903820037842,-2.27,-0.94,-1.62,2.94
7.964639902114868,-1.63,-0.45,-1.36,2.17
7.972789764404297,-0.91,0.25,-1.44,1.72
7.982700824737549,-1.01,1.5,-1.61,2.42
7.9922168254852295,-2.08,3.47,-1.58,4.34
8.001935005187988,-2.97,5.5,-0.81,6.3
8.014918804168701,-3.13,7.17,0.65,7.85
8.022992849349976,-3.08,8.57,1.91,9.3
8.032736778259277,-3.23,9.7,2.57,10.54
8.042521953582764,-3.68,10.58,2.83,11.55
8.052052974700928,-3.76,11.28,2.84,12.22
8.064852714538574,-3.46,11.98,2.54,12.72
8.07319188117981,-3.12,12.43,2.1,12.98
8.083028793334961,-2.62,12.22,1.96,12.65
8.092679977416992,-1.84,11.59,2.12,11.92
8.102142810821533,-1.11,10.72,2.36,11.03
8.114658832550049,-0.55,9.45,2.41,9.76
8.122773885726929,-0.16,8.09,2.2,8.38
8.132691860198975,0.02,7.11,1.86,7.34
8.142206907272339,0.04,6.6,1.45,6.75
8.15198278427124,0.11,6.28,0.97,6.35
8.164628028869629,0.27,5.92,0.48,5.94
8.173202991485596,0.16,5.66,0.17,5.66
8.182426929473877,0.0,5.34,0.14,5.34
8.192397832870483,-0.04,5.13,0.46,5.15
8.20225191116333,0.21,5.11,0.84,5.18
8.214698791503906,0.27,5.03,1.12,5.16
8.222920894622803,-0.02,4.62,1.16,4.76
8.232873916625977,-0.61,4.08,1.21,4.29
8.242235898971558,-1.1,3.44,1.49,3.9
8.252257823944092,-1.04,2.88,1.76,3.53
8.264869689941406,-1.03,2.73,1.98,3.52
8.273173809051514,-1.44,2.62,2.06,3.63
8.282693862915039,-1.82,2.22,1.95,3.47
8.292407989501953,-2.03,1.98,1.61,3.26
8.302202701568604,-2.08,1.6,1.25,2.9
8.314939022064209,-1.99,0.8,0.95,2.34
8.323213815689087,-2.02,-0.04,0.59,2.1
8.33279275894165,-2.01,-0.9,0.28,2.22
8.342252731323242,-1.92,-1.49,0.25,2.44
8.352254867553711,-1.72,-1.85,0.46,2.56
8.364959716796875,-1.53,-2.28,0.66,2.82
8.373169898986816,-1.64,-2.76,0.54,3.25
8.38271188735962,-1.92,-3.31,0.09,3.82
8.392571926116943,-2.0,-4.03,-0.36,4.51
8.402217864990234,-1.76,-4.82,-0.73,5.18
8.414884805679321,-1.47,-5.49,-1.01,5.77
8.42328691482544,-1.16,-5.97,-1.33,6.22
8.43267297744751,-0.95,-6.44,-1.54,6.68
8.442479848861694,-0.82,-6.67,-1.71,6.93
8.452384948730469,-0.64,-6.52,-1.81,6.79
8.464984893798828,-0.41,-6.27,-1.9,6.56
8.47303581237793,-0.24,-6.27,-2.01,6.58
8.482597827911377,-0.17,-6.49,-1.92,6.77
8.49258279800415,-0.25,-6.65,-1.62,6.84
8.502142906188965,-0.37,-6.77,-1.24,6.89
8.514871835708618,-0.68,-6.89,-0.87,6.97
8.523193836212158,-0.91,-6.99,-0.68,7.08
8.532408714294434,-0.99,-6.99,-0.81,7.1
8.542435884475708,-1.16,-6.81,-0.89,6.96
8.552244901657104,-1.23,-6.42,-0.84,6.59
8.564615726470947,-1.18,-6.13,-0.94,6.31
8.573154926300049,-1.25,-6.01,-0.96,6.21
8.582247734069824,-1.15,-5.75,-0.99,5.94
8.592570781707764,-0.97,-5.41,-0.96,5.57
8.602360725402832,-0.82,-5.11,-0.95,5.26
8.61470890045166,-0.85,-4.99,-1.0,5.15
8.62325382232666,-1.08,-4.93,-1.02,5.14
8.632568836212158,-1.39,-4.84,-0.95,5.12
8.642500877380371,-1.76,-4.72,-0.81,5.1
8.652248859405518,-2.0,-4.63,-0.71,5.09
8.66455602645874,-2.36,-4.8,-0.53,5.37
8.673104763031006,-2.62,-4.93,-0.47,5.6
8.682381868362427,-2.37,-5.14,-0.52,5.68
8.69256591796875,-1.65,-5.52,-0.66,5.79
8.702427864074707,-0.72,-5.89,-0.96,6.01
8.714760780334473,-0.32,-6.21,-1.15,6.32
8.723331928253174,-0.22,-6.37,-1.3,6.5
8.732590913772583,-0.42,-6.31,-1.68,6.54
8.742431879043579,-1.13,-5.68,-2.23,6.2
8.752498865127563,-1.64,-4.52,-2.93,5.63
8.764740943908691,-2.05,-2.85,-3.62,5.04
8.77334976196289,-2.39,-1.07,-3.81,4.62
8.782492876052856,-2.06,0.25,-3.44,4.01
8.792610883712769,-1.89,1.49,-2.59,3.53
8.802456855773926,-2.12,3.09,-1.34,3.97
8.814895868301392,-1.82,4.47,-0.31,4.83
8.823221683502197,-1.99,5.91,0.55,6.26
8.832514762878418,-2.85,8.08,1.72,8.73
8.842564821243286,-4.05,10.59,3.67,11.91
8.852538824081421,-4.99,12.71,5.5,14.72
8.86500072479248,-5.89,14.15,6.86,16.79
8.873597860336304,-6.1,15.49,7.1,18.09
8.882580757141113,-5.55,16.14,6.11,18.12
8.893472909927368,-4.54,15.58,4.41,16.81
8.902505874633789,-2.53,14.22,2.93,14.73
8.914999008178711,-0.41,12.47,1.77,12.6
8.923378944396973,0.92,10.53,1.25,10.64
8.93248176574707,1.49,8.91,1.41,9.14
8.942988872528076,1.69,7.8,1.89,8.2
8.952385902404785,1.39,7.02,2.26,7.5
8.964677810668945,0.83,6.38,2.52,6.9
8.973241806030273,0.25,6.11,2.7,6.68
8.982532978057861,-0.37,6.13,2.72,6.71
8.993124961853027,-0.76,6.18,2.4,6.67
9.002622842788696,-0.98,6.37,1.94,6.73
9.015058994293213,-0.91,6.09,1.42,6.31
9.023538827896118,-0.54,5.16,1.05,5.29
9.032674789428711,-0.21,4.31,1.17,4.47
9.043076992034912,-0.08,3.48,1.35,3.73
9.052531719207764,0.13,2.6,1.39,2.95
9.064899921417236,0.2,2.24,1.59,2.75
9.073522806167603,-0.14,2.11,1.74,2.73
9.082534790039062,-0.86,1.96,1.67,2.71
9.093204975128174,-2.28,1.86,1.7,3.39
9.102604866027832,-3.62,1.19,1.44,4.07
9.115110874176025,-4.21,0.4,0.96,4.33
9.123700857162476,-4.13,-0.05,0.5,4.16
9.132699012756348,-3.34,-0.59,0.26,3.4
9.143043994903564,-2.39,-1.37,0.25,2.76
9.152614831924438,-1.81,-2.31,0.15,2.93
9.165117740631104,-1.51,-3.15,-0.09,3.49
9.17333173751831,-1.44,-3.66,-0.27,3.94
9.182686805725098,-1.52,-4.02,-0.23,4.3
9.193262815475464,-1.64,-4.38,-0.18,4.68
9.202546834945679,-1.72,-4.83,-0.29,5.13
9.215142726898193,-1.77,-5.43,-0.47,5.73
9.223448753356934,-1.83,-6.06,-0.65,6.36
9.23281192779541,-1.87,-6.52,-0.92,6.84
9.243155002593994,-1.85,-6.97,-1.35,7.33
9.25251293182373,-1.73,-7.43,-1.69,7.81
9.265148878097534,-1.34,-7.77,-1.79,8.08
9.273441791534424,-0.83,-7.93,-1.75,8.16
9.282752990722656,-0.43,-8.04,-1.65,8.21
9.293349742889404,-0.18,-8.19,-1.59,8.34
9.302719831466675,-0.15,-8.42,-1.57,8.56
9.31516695022583,-0.17,-8.75,-1.68,8.91
9.323638916015625,-0.18,-9.09,-1.91,9.29
9.332902908325195,-0.27,-9.33,-2.01,9.54
9.343363761901855,-0.37,-9.35,-2.07,9.58
9.352645874023438,-0.54,-9.26,-1.84,9.45
9.365052700042725,-0.8,-9.07,-1.55,9.23
9.373548984527588,-1.12,-8.94,-1.3,9.1
9.382819890975952,-1.37,-8.86,-1.2,9.04
9.393317699432373,-1.51,-8.85,-1.27,9.06
9.402682781219482,-1.7,-8.7,-1.33,8.96
9.415302753448486,-2.13,-8.2,-1.52,8.6
9.423529863357544,-2.49,-7.71,-1.51,8.24
9.432962894439697,-2.5,-7.46,-1.52,8.01
9.443389892578125,-2.26,-7.33,-1.64,7.84
9.452616691589355,-1.83,-7.11,-1.95,7.59
9.465057849884033,-1.65,-6.59,-2.23,7.15
9.473578929901123,-2.0,-5.94,-2.18,6.63
9.483014822006226,-2.18,-5.57,-2.03,6.31
9.493396759033203,-2.27,-5.36,-1.95,6.13
9.50280475616455,-2.75,-5.0,-1.74,5.96
9.515292882919312,-3.61,-4.13,-1.39,5.65
9.523716926574707,-3.97,-3.21,-1.13,5.22
9.53313398361206,-4.84,-2.13,-0.91,5.36
9.543431758880615,-5.76,-0.67,-0.73,5.84
9.552832841873169,-6.0,0.61,-0.57,6.05
9.565274715423584,-4.97,1.9,-0.38,5.33
9.573575973510742,-3.76,4.4,0.35,5.79
9.583009719848633,-3.91,8.02,1.68,9.07
9.593486785888672,-5.68,11.04,2.53,12.67
9.60274600982666,-7.13,12.92,3.17,15.09
9.615814685821533,-7.34,14.69,4.4,17.0
9.62408185005188,-6.97,16.13,5.6,18.44
9.633373737335205,-6.74,16.8,6.45,19.21
9.643778800964355,-6.17,16.66,6.77,19.01
9.65271282196045,-4.95,15.91,6.39,17.84
9.665357828140259,-3.44,15.01,5.47,16.34
9.674014806747437,-2.19,13.94,4.17,14.71
9.683326721191406,-1.49,12.59,2.89,13.0
9.69356083869934,-0.49,11.04,2.07,11.24
9.702728748321533,0.35,9.4,1.74,9.56
9.715158939361572,0.85,8.05,1.89,8.31
9.723633766174316,0.77,7.29,2.47,7.73
9.73303484916687,0.31,6.94,3.27,7.67
9.743300914764404,-0.31,6.73,3.77,7.72
9.752814769744873,-1.42,6.65,4.13,7.95
9.765278816223145,-2.27,6.57,4.39,8.22
9.773715019226074,-2.68,6.45,4.64,8.38
9.783127784729004,-2.94,6.11,4.1,7.92
9.793591976165771,-2.83,5.53,3.05,6.92
9.80280089378357,-2.3,5.13,2.2,6.03
9.815030813217163,-2.06,4.71,1.44,5.33
9.823709964752197,-2.29,3.99,0.92,4.69
9.833038806915283,-2.71,3.1,0.95,4.22
9.84331488609314,-3.19,2.15,1.27,4.05
9.852829933166504,-3.36,0.84,1.61,3.81
9.865287780761719,-3.45,-0.58,1.69,3.88
9.873697757720947,-3.46,-1.9,1.51,4.22
9.883081912994385,-3.27,-3.03,1.15,4.6
9.893548965454102,-2.87,-3.96,0.71,4.94
9.902884006500244,-2.49,-4.49,0.17,5.13
9.915114879608154,-2.3,-4.78,-0.5,5.32
9.923776865005493,-2.14,-5.19,-1.09,5.71
9.933121681213379,-2.13,-5.7,-1.7,6.31
9.943403720855713,-2.31,-6.02,-2.2,6.81
9.95290994644165,-2.37,-6.23,-2.27,7.04
9.965139865875244,-2.15,-6.48,-1.96,7.1
9.973764896392822,-1.96,-6.66,-1.62,7.12
9.983117818832397,-1.84,-6.97,-1.4,7.34
9.99365782737732,-1.77,-7.31,-1.28,7.62
10.002853870391846,-1.68,-7.37,-1.33,7.67
10.015248775482178,-1.5,-7.38,-1.46,7.67
10.023738861083984,-1.18,-7.49,-1.68,7.76
10.033186912536621,-0.98,-7.59,-1.98,7.9
10.043344020843506,-0.98,-7.68,-2.09,8.01
10.052884817123413,-1.0,-7.76,-2.11,8.1
10.065229892730713,-1.02,-7.93,-1.96,8.23
10.073747873306274,-1.0,-8.04,-1.73,8.28
10.083202838897705,-0.98,-8.15,-1.61,8.36
10.093620777130127,-0.82,-8.38,-1.59,8.56
10.10289478302002,-0.65,-8.63,-1.57,8.79
10.11524486541748,-0.41,-8.8,-1.7,8.97
10.123786926269531,-0.25,-8.94,-1.74,9.11
10.1332688331604,-0.26,-8.89,-1.62,9.04
10.143570899963379,-0.27,-8.82,-1.48,8.94
10.153044700622559,-0.34,-8.93,-1.49,9.05
10.16527271270752,-0.57,-9.17,-1.73,9.34
10.17390489578247,-0.81,-9.37,-1.91,9.59
10.182992935180664,-0.81,-9.4,-1.92,9.62
10.193627834320068,-0.98,-9.33,-2.0,9.59
10.203036785125732,-1.37,-9.59,-1.95,9.88
10.215523719787598,-1.35,-9.76,-1.97,10.04
10.223888874053955,-0.93,-9.23,-1.84,9.45
10.233246803283691,-0.61,-8.32,-1.74,8.52
10.243577003479004,-0.74,-7.21,-2.38,7.62
10.253050804138184,-1.89,-5.09,-3.38,6.39
10.265093803405762,-3.74,-1.36,-3.38,5.22
10.2739839553833,-5.72,2.8,-2.33,6.78
10.283224821090698,-7.51,6.18,-0.56,9.74
10.293623924255371,-8.23,9.15,1.39,12.38
10.302976846694946,-8.19,11.51,3.05,14.45
10.315469741821289,-8.07,13.18,4.04,15.97
10.324156761169434,-7.91,14.03,4.35,16.68
10.33342695236206,-7.18,14.54,4.66,16.87
10.343734741210938,-6.3,15.15,5.39,17.27
10.353133916854858,-5.49,15.41,5.62,17.29
10.36596393585205,-4.56,15.16,4.5,16.45
10.374339818954468,-3.47,14.47,2.71,15.12
10.383810997009277,-2.31,13.2,0.94,13.43
10.39401388168335,-1.51,11.49,-0.29,11.59
10.403158903121948,-0.63,9.9,-0.54,9.93
10.415466785430908,0.45,8.49,-0.06,8.5
10.423954010009766,1.07,7.28,0.74,7.39
10.433298826217651,0.99,6.55,1.56,6.8
10.443773746490479,0.78,6.18,2.07,6.56
10.453085899353027,0.65,6.08,2.3,6.53
10.465343952178955,0.2,6.46,2.35,6.87
10.47396993637085,-0.68,6.97,2.1,7.31
10.483433723449707,-1.51,7.26,1.65,7.59
10.493812799453735,-1.91,7.4,1.41,7.77
10.502981901168823,-2.02,7.4,1.17,7.75
10.515643835067749,-2.11,7.04,1.17,7.44
10.523940801620483,-2.11,6.6,1.65,7.12
10.533444881439209,-2.0,5.82,2.14,6.51
10.54379391670227,-1.87,4.81,2.28,5.64
10.553119897842407,-2.01,4.08,2.16,5.03
10.565425872802734,-2.39,3.53,1.63,4.56
10.574038982391357,-3.11,2.81,0.97,4.3
10.583371877670288,-3.32,1.79,0.61,3.82
10.593883991241455,-3.03,0.74,0.5,3.15
10.603195905685425,-3.16,0.03,0.54,3.2
10.61579179763794,-3.14,-0.74,0.53,3.26
10.624241828918457,-2.82,-1.48,0.34,3.2
10.633487701416016,-2.73,-2.05,0.2,3.41
10.643846035003662,-2.78,-2.73,0.08,3.89
10.65330982208252,-2.7,-3.51,0.01,4.42
10.66566801071167,-2.49,-4.23,-0.05,4.9
10.674126863479614,-2.29,-4.96,-0.19,5.46
10.683416843414307,-2.13,-5.7,-0.47,6.1
10.693785905838013,-2.03,-6.4,-0.84,6.76
10.703242778778076,-1.9,-7.09,-1.17,7.43
10.715855836868286,-1.6,-7.68,-1.42,7.97
10.724181890487671,-1.27,-8.11,-1.86,8.41
10.733560800552368,-1.0,-8.55,-2.28,8.9
10.74377989768982,-0.7,-8.86,-2.51,9.23
10.753309726715088,-0.24,-9.07,-2.58,9.43
10.765585899353027,0.09,-9.24,-2.51,9.57
10.774137020111084,0.1,-9.37,-2.22,9.62
10.783478736877441,0.03,-9.39,-1.94,9.58
10.79372787475586,-0.14,-9.38,-1.71,9.53
10.803211688995361,-0.35,-9.4,-1.56,9.53
10.815471887588501,-0.55,-9.42,-1.42,9.54
10.824680805206299,-0.81,-9.19,-1.29,9.31
10.833794832229614,-1.05,-8.81,-1.21,8.95
10.848021984100342,-1.39,-8.46,-1.04,8.63
10.853340864181519,-1.69,-8.03,-0.91,8.25
10.865618705749512,-1.69,-7.73,-0.96,7.97
10.874488830566406,-1.49,-7.68,-1.13,7.9
10.883464813232422,-1.33,-7.68,-1.44,7.92
10.89778995513916,-1.27,-7.67,-1.81,7.98
10.90330982208252,-1.37,-7.7,-2.16,8.11
10.915629863739014,-1.49,-7.67,-2.39,8.17
10.924713850021362,-1.43,-7.6,-2.5,8.12
10.933408737182617,-1.47,-7.61,-2.5,8.14
10.947704792022705,-1.65,-7.77,-2.44,8.3
10.953357696533203,-2.03,-7.69,-2.42,8.31
10.965611934661865,-2.25,-7.44,-2.7,8.22
10.97464895248413,-2.19,-7.14,-2.76,7.96
10.983638763427734,-1.73,-6.55,-2.85,7.34
10.997480869293213,-1.73,-5.85,-2.87,6.74
11.003396034240723,-2.24,-5.06,-2.74,6.17
11.015687942504883,-2.94,-4.1,-2.4,5.58
11.024598836898804,-4.09,-2.47,-1.32,4.95
11.033591747283936,-5.1,0.13,0.03,5.1
11.04758071899414,-5.94,2.79,1.64,6.76
11.053356885910034,-7.62,5.56,3.07,9.91
11.065961837768555,-9.63,8.0,4.21,13.2
11.074717998504639,-10.24,9.77,5.29,15.1
11.084364891052246,-9.06,10.94,5.69,15.3
11.09791898727417,-7.38,11.96,5.32,15.02
11.103477954864502,-6.14,12.83,4.27,14.85
11.116607904434204,-5.26,13.52,2.77,14.76
11.125041007995605,-4.63,14.48,1.46,15.27
11.134119987487793,-4.04,15.4,0.49,15.92
11.147812843322754,-3.44,15.48,-0.4,15.86
11.153432846069336,-3.05,15.25,-1.02,15.58
11.166342735290527,-2.64,14.8,-0.99,15.06
11.1750648021698,-2.09,13.93,-0.33,14.08
11.184065818786621,-1.67,12.63,0.54,12.75
11.197497844696045,-1.51,11.19,1.38,11.37
11.203464984893799,-1.47,10.16,2.14,10.48
11.21617603302002,-1.32,9.87,2.74,10.32
11.224524974822998,-1.35,9.87,2.91,10.37
11.233790874481201,-1.76,9.68,2.67,10.19
11.247713804244995,-2.4,9.74,2.48,10.33
11.253532886505127,-3.11,9.86,2.32,10.59
11.265913963317871,-3.87,9.83,2.24,10.79
11.274802684783936,-4.35,9.05,2.44,10.33
11.283788681030273,-4.31,7.57,2.87,9.17
11.297698020935059,-3.98,5.96,3.27,7.87
11.303571701049805,-3.87,4.64,3.51,6.98
11.315858840942383,-4.58,3.87,3.6,6.99
11.324971914291382,-5.46,3.03,3.47,7.14
11.333966732025146,-5.66,1.68,2.96,6.6
11.347847938537598,-5.61,0.11,2.37,6.09
11.353515863418579,-5.27,-1.38,1.75,5.72
11.366189002990723,-4.32,-2.75,0.99,5.21
11.374890804290771,-3.73,-3.69,0.3,5.25
11.383940696716309,-3.4,-4.72,-0.3,5.82
11.39778184890747,-3.08,-6.23,-0.73,6.98
11.403587818145752,-2.8,-7.77,-1.03,8.32
11.41591501235962,-2.48,-9.11,-1.23,9.52
11.424834728240967,-2.11,-10.05,-1.12,10.33
11.433925867080688,-1.74,-10.25,-0.91,10.43
11.44753885269165,-1.49,-10.18,-0.8,10.31
11.453666687011719,-1.58,-10.45,-0.9,10.6
11.465926885604858,-1.7,-10.83,-1.31,11.04
11.474962711334229,-1.41,-11.22,-1.9,11.46
11.483866691589355,-0.95,-11.49,-2.35,11.76
11.497445821762085,-0.53,-11.47,-2.7,11.79
11.50359296798706,-0.12,-11.36,-2.97,11.74
11.515950679779053,-0.05,-11.17,-3.2,11.61
11.525107860565186,-0.37,-10.98,-3.37,11.49
11.534011840820312,-0.81,-10.97,-3.47,11.53
11.547737836837769,-1.2,-10.86,-3.52,11.47
11.553663730621338,-1.39,-10.7,-3.56,11.36
11.566109895706177,-1.39,-10.39,-3.49,11.04
11.575102806091309,-1.17,-10.06,-3.39,10.68
11.584115028381348,-1.09,-9.96,-3.36,10.56
11.597996711730957,-1.13,-9.77,-3.43,10.41
11.603845834732056,-1.38,-9.5,-3.44,10.19
11.616328716278076,-1.64,-9.3,-3.37,10.02
11.625130891799927,-1.79,-8.95,-3.22,9.67
11.63418197631836,-1.75,-8.67,-3.08,9.36
11.647846698760986,-1.51,-8.67,-3.15,9.34
11.65387487411499,-1.42,-8.5,-3.34,9.24
11.666364908218384,-1.49,-8.19,-3.03,8.85
11.6752028465271,-1.59,-7.8,-1.86,8.17
11.684170722961426,-1.86,-7.04,-0.53,7.3
11.697900772094727,-2.13,-6.35,0.67,6.73
11.703784942626953,-2.66,-5.88,1.27,6.57
11.71626091003418,-3.76,-4.75,0.98,6.13
11.72533893585205,-5.51,-2.95,0.68,6.28
11.734234809875488,-6.61,-1.34,0.91,6.8
11.747779846191406,-6.74,0.43,1.71,6.96
11.753780841827393,-6.76,3.04,2.43,7.8
11.766335010528564,-7.9,5.83,2.29,10.08
11.775153875350952,-9.39,8.34,1.55,12.65
11.783999919891357,-10.09,11.06,0.68,14.98
11.797425746917725,-10.01,13.85,-0.33,17.09
11.80379581451416,-9.33,15.97,-0.53,18.5
11.816419839859009,-7.99,17.11,-0.13,18.88
11.82555103302002,-6.46,17.57,0.35,18.72
11.834374904632568,-5.89,17.68,0.92,18.65
11.847107887268066,-5.54,17.22,1.04,18.11
11.853816986083984,-5.12,16.19,0.62,16.99
11.866631984710693,-4.25,15.04,0.23,15.63
11.875342845916748,-3.05,13.8,0.1,14.13
11.88447093963623,-2.02,12.3,0.19,12.46
11.89712381362915,-1.38,10.69,0.57,10.79
11.90381383895874,-0.91,9.33,1.01,9.42
11.916156768798828,-0.66,8.5,1.65,8.68
11.925158977508545,-0.78,7.98,2.25,8.32
11.934140682220459,-1.46,7.8,2.4,8.29
11.947487831115723,-2.25,7.68,2.26,8.31
11.953840732574463,-2.56,7.26,1.99,7.95
11.966096878051758,-2.72,6.97,1.85,7.7
11.975230693817139,-2.71,6.41,1.79,7.18
11.984319686889648,-2.82,5.56,1.77,6.48
11.997275829315186,-3.22,4.77,1.96,6.07
12.003846883773804,-3.29,4.01,2.12,5.6
12.016154766082764,-3.07,3.41,2.16,5.07
12.025089740753174,-2.91,2.43,1.95,4.26
12.034209728240967,-3.03,1.58,1.58,3.76
12.047098875045776,-3.17,0.66,1.22,3.46
12.053900718688965,-3.16,-0.39,0.97,3.32
12.06624698638916,-3.08,-1.29,0.84,3.44
12.075320720672607,-2.85,-2.22,0.75,3.68
12.084370851516724,-2.66,-2.81,0.84,3.95
12.097261905670166,-2.74,-3.15,1.05,4.3
12.103851795196533,-2.89,-3.92,1.25,5.02
12.116148948669434,-3.14,-4.66,1.26,5.75
12.125252723693848,-3.24,-5.15,1.05,6.17
12.134317874908447,-3.04,-5.57,0.85,6.4
12.14729380607605,-2.82,-5.77,0.81,6.47
12.15392780303955,-2.78,-6.1,0.66,6.73
12.166210889816284,-2.87,-6.66,0.17,7.25
12.175256729125977,-2.84,-7.3,-0.48,7.84
12.184281826019287,-2.58,-8.06,-1.14,8.53
12.197665691375732,-2.3,-8.74,-1.93,9.24
12.203938961029053,-1.84,-9.35,-2.49,9.84
12.216270923614502,-1.29,-9.91,-2.82,10.38
12.225162029266357,-0.75,-10.3,-2.96,10.74
12.234318733215332,-0.18,-10.66,-2.99,11.07
12.247087001800537,0.15,-10.97,-2.87,11.34
12.253997802734375,0.19,-11.2,-2.66,11.51
12.26637601852417,0.02,-11.35,-2.65,11.65
12.27535891532898,-0.15,-11.58,-2.82,11.91
12.284373760223389,-0.21,-11.6,-3.14,12.01
12.29715871810913,-0.26,-11.28,-3.47,11.8
12.303939819335938,-0.33,-10.97,-3.7,11.58
12.316234827041626,-0.5,-10.68,-3.89,11.37
12.325088024139404,-0.64,-10.51,-3.89,11.22
12.33442497253418,-0.79,-10.45,-3.71,11.11
12.346863746643066,-1.14,-10.32,-3.36,10.91
12.354029893875122,-1.58,-10.01,-2.81,10.51
12.366453886032104,-1.84,-9.81,-2.22,10.22
12.375391006469727,-2.27,-9.16,-1.97,9.64
12.384432792663574,-2.63,-7.82,-2.0,8.48
12.396973848342896,-2.94,-6.09,-1.56,6.94
12.4043869972229,-3.42,-4.38,-0.75,5.6
12.416505813598633,-4.14,-2.95,0.12,5.08
12.425574779510498,-4.86,-1.9,1.17,5.34
12.434554815292358,-5.1,-0.95,1.5,5.4
12.447288036346436,-5.05,-0.04,1.0,5.14
12.454137802124023,-5.01,0.25,0.66,5.05
12.466801881790161,-4.79,0.74,0.97,4.94
12.4756498336792,-4.63,1.52,2.27,5.37
12.484694004058838,-4.71,2.17,3.42,6.21
12.497142791748047,-5.5,3.49,3.76,7.52
12.50419282913208,-6.45,5.69,3.41,9.25
12.51631498336792,-6.45,7.77,2.01,10.29
12.525609970092773,-6.02,9.71,-0.09,11.42
12.534864902496338,-5.75,12.03,-1.54,13.42
12.54711103439331,-5.79,14.35,-1.97,15.59
12.554190874099731,-6.52,16.34,-1.55,17.66
12.567039012908936,-7.19,17.44,-0.64,18.87
12.576090812683105,-7.16,17.14,0.48,18.58
12.58496880531311,-6.49,16.47,1.63,17.77
12.596860885620117,-5.22,15.7,2.41,16.71
12.60418176651001,-4.12,14.32,2.48,15.1
12.617002010345459,-3.16,12.46,1.71,12.96
12.625936031341553,-2.08,10.84,0.87,11.07
12.635106801986694,-1.22,10.2,0.4,10.28
12.646599769592285,-0.73,9.9,0.02,9.92
12.654225826263428,-0.79,9.5,-0.32,9.53
12.66652774810791,-1.12,9.36,-0.14,9.42
12.675615787506104,-1.51,9.15,0.42,9.28
12.684507846832275,-1.94,8.42,0.92,8.68
12.69670295715332,-2.56,7.69,1.47,8.23
12.70423173904419,-3.35,7.1,1.87,8.07
12.716591835021973,-4.01,6.21,2.03,7.66
12.725376844406128,-4.26,5.47,2.05,7.22
12.734587907791138,-3.83,4.59,1.8,6.24
12.746490001678467,-3.35,3.17,1.49,4.84
12.75427770614624,-3.56,2.05,1.4,4.34
12.766595840454102,-3.92,1.01,1.27,4.24
12.77552080154419,-4.34,-0.15,1.1,4.47
12.784400939941406,-4.59,-1.44,0.85,4.88
12.796483993530273,-4.5,-3.16,0.37,5.51
12.804224967956543,-4.2,-5.02,-0.23,6.54
12.816587924957275,-3.72,-6.68,-0.6,7.66
12.825493812561035,-3.25,-7.92,-0.81,8.59
12.83461880683899,-2.68,-8.77,-1.1,9.23
12.846499919891357,-1.97,-9.54,-1.26,9.82
12.854238986968994,-1.47,-10.06,-1.31,10.25
12.866535902023315,-1.3,-10.07,-1.34,10.24
12.87554383277893,-1.56,-9.88,-1.42,10.1
12.884645938873291,-2.03,-9.92,-1.62,10.25
12.896339893341064,-2.39,-10.11,-1.94,10.56
12.904307842254639,-2.52,-10.15,-2.13,10.67
12.916685819625854,-2.34,-9.91,-2.15,10.4
12.925630807876587,-2.34,-9.39,-2.12,9.9
12.934900760650635,-2.54,-8.91,-1.88,9.45
12.947046756744385,-2.49,-8.84,-1.59,9.32
12.954449892044067,-2.32,-8.98,-1.5,9.39
12.966957807540894,-1.93,-9.06,-1.56,9.39
12.975829839706421,-1.39,-9.15,-1.82,9.43
12.984681844711304,-1.04,-9.32,-2.15,9.62
12.996679782867432,-0.86,-9.39,-2.35,9.71
13.004409790039062,-1.01,-9.32,-2.39,9.67
13.016674995422363,-1.59,-9.24,-2.26,9.64
13.025664806365967,-2.12,-9.2,-2.01,9.65
13.034756898880005,-2.21,-9.33,-1.77,9.75
13.046402931213379,-2.18,-9.4,-1.73,9.8
13.054348945617676,-1.99,-9.25,-1.91,9.65
13.066722869873047,-1.59,-8.94,-1.98,9.29
13.075694799423218,-1.58,-8.37,-1.88,8.72
13.084638833999634,-2.03,-7.66,-1.75,8.11
13.096395015716553,-2.11,-7.1,-1.49,7.55
13.104374885559082,-1.8,-6.51,-0.86,6.8
13.116691827774048,-2.16,-5.45,0.06,5.86
13.125680923461914,-2.76,-4.3,0.6,5.14
13.134918689727783,-4.08,-2.18,0.64,4.66
13.146183967590332,-5.96,0.34,1.2,6.08
13.154414892196655,-6.46,1.43,1.51,6.78
13.16689682006836,-6.1,2.0,0.9,6.48
13.175821781158447,-5.66,2.69,0.29,6.27
13.184882879257202,-4.75,3.04,-0.04,5.63
13.19675087928772,-4.16,3.97,0.3,5.75
13.204724788665771,-4.12,5.02,1.33,6.62
13.216760873794556,-4.5,5.51,2.28,7.47
13.225887775421143,-4.8,5.96,3.15,8.27
13.234769821166992,-4.5,6.43,3.49,8.58
13.246325016021729,-5.94,8.29,3.05,10.64
13.254523754119873,-7.66,10.23,2.59,13.03
13.266981840133667,-8.74,11.14,1.64,14.25
13.275730848312378,-9.08,11.66,0.5,14.78
13.285193920135498,-8.49,11.93,-0.46,14.64
13.296374797821045,-7.34,11.87,-1.1,13.99
13.304567813873291,-6.31,11.96,-1.38,13.59
13.316843032836914,-5.41,12.06,-1.25,13.27
13.325613021850586,-4.52,11.65,-1.44,12.57
13.334850788116455,-3.9,10.56,-1.86,11.4
13.34626293182373,-3.52,9.53,-2.17,10.38
13.354561805725098,-3.47,8.77,-2.09,9.66
13.366901874542236,-3.41,8.25,-1.47,9.04
13.37564468383789,-3.13,7.95,-0.81,8.58
13.384781837463379,-2.81,7.61,-0.07,8.11
13.396142959594727,-2.77,7.12,0.36,7.64
13.40461778640747,-3.49,6.67,0.67,7.55
13.416814804077148,-4.51,6.36,1.04,7.86
13.425598859786987,-5.23,5.87,1.21,7.95
13.435025691986084,-5.75,5.51,1.35,8.07
13.446280002593994,-5.88,5.28,1.53,8.04
13.454600811004639,-6.27,4.86,1.67,8.1
13.466842889785767,-7.02,4.17,2.02,8.41
13.475656986236572,-6.88,2.66,2.28,7.72
13.484894752502441,-6.22,0.74,2.1,6.6
13.496290683746338,-5.61,-0.84,1.86,5.96
13.504679679870605,-4.63,-1.98,1.55,5.26
13.516952991485596,-3.73,-3.08,1.42,5.04
13.525652885437012,-2.77,-4.16,1.28,5.15
13.534955024719238,-1.81,-5.05,0.8,5.42
13.546060800552368,-1.44,-5.9,0.26,6.07
13.554643869400024,-1.92,-6.36,-0.19,6.64
13.567015886306763,-2.41,-6.73,-0.23,7.15
13.575647830963135,-2.28,-7.37,-0.49,7.73
13.584969997406006,-2.26,-8.02,-0.67,8.35
13.59610390663147,-1.84,-8.41,-0.89,8.65
13.604684829711914,-0.99,-8.69,-1.26,8.83
13.616947889328003,-0.42,-8.75,-1.44,8.87
13.625673770904541,-0.16,-8.54,-1.56,8.68
13.634923934936523,-0.36,-8.2,-1.74,8.39
13.646126747131348,-0.94,-7.82,-1.87,8.09
13.654717922210693,-1.46,-7.7,-2.15,8.12
13.667047023773193,-1.76,-7.89,-2.36,8.42
13.675658702850342,-1.58,-7.92,-2.45,8.43
13.68496584892273,-1.63,-7.74,-2.36,8.25
13.69610595703125,-2.06,-7.8,-2.22,8.36
13.704723834991455,-2.18,-8.08,-2.19,8.65
13.717280864715576,-2.06,-8.29,-2.18,8.81
13.72562289237976,-1.9,-8.36,-2.15,8.83
13.73500680923462,-1.47,-8.42,-2.2,8.82
13.745917797088623,-0.94,-8.34,-2.24,8.68
13.754788875579834,-0.57,-8.26,-2.4,8.62
13.767251968383789,-0.74,-8.32,-2.57,8.73
13.775589942932129,-1.33,-8.53,-2.84,9.08
13.785148859024048,-1.95,-8.66,-3.02,9.37
13.796026706695557,-2.36,-8.75,-2.98,9.54
13.804829835891724,-2.28,-8.89,-2.96,9.64
13.817255973815918,-1.89,-9.11,-2.9,9.74
13.82574987411499,-1.62,-9.36,-2.86,9.92
13.83502984046936,-2.03,-9.08,-2.86,9.73
13.846004962921143,-2.55,-8.2,-2.79,9.02
13.854801893234253,-3.11,-6.91,-2.99,8.14
13.867197036743164,-3.76,-5.71,-3.42,7.64
13.875669956207275,-4.77,-4.44,-3.88,7.58
13.88522481918335,-5.67,-2.62,-4.15,7.49
13.89586591720581,-5.87,-0.57,-3.81,7.02
13.904860019683838,-5.33,0.96,-3.27,6.32
13.917175769805908,-4.74,1.71,-2.64,5.68
13.92570185661316,-4.87,1.7,-1.47,5.36
13.93513298034668,-5.91,2.34,0.24,6.36
13.945911884307861,-7.1,4.91,2.16,8.89
13.954927921295166,-7.91,7.0,4.94,11.66
13.967244863510132,-8.7,8.24,7.73,14.25
13.975749015808105,-9.19,9.6,9.49,16.33
13.98530387878418,-8.69,11.03,9.95,17.2
13.995913982391357,-7.32,12.16,8.75,16.67
14.0049147605896,-5.49,12.73,7.2,15.62
14.01787281036377,-3.21,12.78,5.87,14.42
14.025998830795288,-1.82,12.58,4.72,13.55
14.035760879516602,-1.47,12.39,4.03,13.11
14.045747756958008,-2.02,12.54,3.95,13.3
14.054847717285156,-2.65,12.49,3.98,13.37
14.067846775054932,-2.22,11.41,3.57,12.15
14.075793743133545,-1.06,10.37,3.26,10.92
14.085283756256104,-0.09,9.84,3.25,10.36
14.095792770385742,0.2,9.29,3.12,9.8
14.104907035827637,-0.03,8.65,3.11,9.19
14.117276906967163,-0.63,8.42,3.35,9.08
14.125612735748291,-1.3,8.46,3.26,9.15
14.135243892669678,-1.59,8.03,2.49,8.55
14.145755767822266,-1.67,7.3,1.86,7.71
14.155282974243164,-1.64,6.51,1.78,6.94
14.167145729064941,-1.8,5.48,1.82,6.04
14.175851821899414,-2.07,4.08,1.72,4.88
14.184952735900879,-2.07,2.75,1.86,3.91
14.196054935455322,-1.88,1.54,2.26,3.31
14.205267906188965,-1.86,0.2,2.41,3.05
14.217240810394287,-2.24,-1.04,2.4,3.44
14.225790977478027,-2.91,-1.7,2.15,3.99
14.235474824905396,-3.18,-2.14,1.6,4.15
14.245985984802246,-2.94,-2.64,0.99,4.07
14.255338907241821,-2.48,-3.0,0.37,3.9
14.267308712005615,-2.02,-3.29,-0.05,3.86
14.275959014892578,-1.67,-3.58,-0.37,3.96
14.285276889801025,-2.01,-3.67,-0.87,4.27
14.295578956604004,-2.66,-3.64,-1.52,4.75
14.305332899093628,-2.95,-3.83,-2.06,5.25
14.317298889160156,-2.5,-4.09,-2.46,5.38
14.325846910476685,-1.63,-4.25,-2.56,5.22
14.335425853729248,-0.79,-4.49,-2.34,5.12
14.345829010009766,-0.41,-4.72,-2.07,5.17
14.355447769165039,-0.8,-4.66,-1.7,5.02
14.36734676361084,-1.38,-4.64,-1.66,5.11
14.37620496749878,-1.57,-4.84,-2.12,5.51
14.385491847991943,-1.42,-5.0,-2.72,5.86
14.395891904830933,-1.06,-5.12,-3.2,6.13
14.405269861221313,-0.88,-5.12,-3.7,6.37
14.417399883270264,-0.97,-5.25,-4.03,6.68
14.426185846328735,-0.88,-5.53,-4.26,7.03
14.435577869415283,-0.84,-5.8,-4.22,7.22
14.446010828018188,-0.76,-5.91,-3.92,7.13
14.455492973327637,-0.7,-6.05,-3.68,7.11
14.467453956604004,-0.91,-6.25,-3.4,7.17
14.476326942443848,-0.95,-6.55,-3.31,7.4
14.485489845275879,-0.85,-7.13,-3.16,7.84
14.495926856994629,-0.61,-7.45,-3.25,8.15
14.505460739135742,-0.38,-7.52,-3.46,8.28
14.517624855041504,-0.44,-7.66,-3.22,8.32
14.526167869567871,-0.69,-7.86,-2.89,8.4
14.53564190864563,-1.17,-8.03,-2.39,8.45
14.545578002929688,-1.68,-8.06,-1.91,8.45
14.555491924285889,-1.66,-8.35,-1.69,8.67
14.567359924316406,-1.45,-8.95,-1.59,9.2
14.576148986816406,-1.61,-9.47,-1.44,9.71
14.585334777832031,-1.72,-9.86,-1.08,10.06
14.595448017120361,-1.54,-9.99,-0.74,10.13
14.605435848236084,-1.0,-9.8,-0.78,9.88
14.617417812347412,-0.6,-9.75,-1.51,9.88
14.626014709472656,-0.48,-9.45,-2.57,9.8
14.635531902313232,-0.73,-8.45,-4.03,9.39
14.645374774932861,-1.57,-6.86,-5.75,9.08
14.65559983253479,-1.86,-4.63,-7.32,8.85
14.667593955993652,-2.3,-2.2,-8.42,9.0
14.676285743713379,-3.45,0.48,-8.18,8.89
14.685504913330078,-4.34,3.76,-6.12,8.39
14.69547986984253,-5.05,7.36,-3.06,9.43
14.705538749694824,-5.97,10.98,-0.04,12.49
14.717902898788452,-6.81,14.83,2.33,16.48
14.726577758789062,-8.25,17.31,3.4,19.47
14.7359037399292,-9.35,18.32,4.09,20.97
14.745436906814575,-8.54,19.01,5.06,21.44
14.755554914474487,-6.84,18.88,6.01,20.96
14.767563819885254,-5.61,17.8,6.46,19.74
14.776410818099976,-4.33,15.9,5.88,17.49
14.785671710968018,-2.4,13.58,4.86,14.62
14.795555830001831,-0.15,11.3,4.04,12.0
14.80563497543335,1.59,9.04,3.21,9.72
14.817471981048584,1.84,7.09,2.8,7.84
14.8263578414917,1.15,5.94,3.03,6.76
14.835806846618652,1.29,5.71,3.75,6.95
14.845662832260132,1.01,5.91,4.25,7.34
14.855597019195557,0.34,5.82,3.99,7.06
14.867530822753906,-0.64,5.32,3.35,6.31
14.8761887550354,-1.04,5.01,2.56,5.72
14.885624885559082,-0.98,4.71,1.65,5.08
14.895604848861694,-1.04,4.24,0.81,4.44
14.905731916427612,-1.19,3.81,0.36,4.0
14.917714834213257,-1.36,3.26,0.56,3.57
14.92625880241394,-1.7,2.85,1.14,3.5
14.935841798782349,-2.49,2.37,1.61,3.79
14.94535493850708,-2.89,1.42,1.69,3.63
14.955752849578857,-2.8,0.42,1.6,3.25
14.967552900314331,-2.78,-0.19,1.36,3.1
14.976224899291992,-2.72,-0.83,0.98,3.0
14.9856698513031,-2.98,-1.15,0.76,3.28
14.995669841766357,-3.01,-1.46,0.42,3.37
15.005739688873291,-2.51,-2.19,-0.19,3.33
15.01774787902832,-1.9,-2.66,-0.82,3.37
15.026156902313232,-1.51,-2.92,-1.4,3.57
15.035775899887085,-1.17,-3.5,-1.79,4.1
15.045567989349365,-1.03,-4.02,-1.91,4.56
15.05587387084961,-0.91,-4.31,-2.03,4.85
15.067750930786133,-0.9,-4.63,-2.07,5.15
15.076233863830566,-0.94,-4.8,-1.73,5.18
15.085620880126953,-0.86,-4.66,-1.25,4.9
15.095720767974854,-0.86,-4.52,-0.98,4.7
15.105783939361572,-0.99,-4.46,-1.08,4.69
15.117664813995361,-1.04,-4.41,-1.51,4.77
15.126258850097656,-1.05,-4.44,-1.89,4.93
15.135649681091309,-1.16,-4.44,-2.19,5.08
15.145530700683594,-1.15,-4.27,-2.38,5.02
15.15556287765503,-0.88,-4.27,-2.59,5.07
15.167759895324707,-0.67,-4.35,-2.79,5.21
15.176484823226929,-0.53,-4.4,-2.98,5.34
15.185710906982422,-0.47,-4.5,-3.14,5.5
15.195755958557129,-0.71,-4.63,-3.11,5.62
15.205849885940552,-0.96,-4.86,-2.98,5.78
15.218060970306396,-1.14,-5.3,-2.81,6.1
15.226334810256958,-1.26,-5.65,-2.85,6.45
15.235865831375122,-1.21,-5.8,-3.12,6.69
15.245628833770752,-0.47,-6.26,-3.59,7.23
15.255952835083008,0.49,-6.88,-4.08,8.01
15.267728805541992,1.1,-7.2,-4.49,8.55
15.276448726654053,1.08,-7.36,-4.65,8.77
15.28576374053955,0.65,-7.7,-4.46,8.92
15.295753955841064,0.26,-8.33,-4.18,9.32
15.305891990661621,-0.39,-9.15,-3.75,9.89
15.317888736724854,-0.93,-9.76,-3.29,10.34
15.326329708099365,-0.53,-10.16,-2.91,10.58
15.337260723114014,0.0,-10.31,-2.58,10.62
15.345710754394531,-0.12,-10.49,-2.72,10.83
15.355952739715576,-0.54,-10.97,-2.86,11.34
15.367810726165771,-0.67,-11.25,-2.87,11.62
15.376417875289917,-1.76,-10.81,-3.12,11.38
15.385833740234375,-3.07,-8.58,-4.67,10.23
15.396001815795898,-3.49,-5.3,-6.76,9.27
15.406085968017578,-3.88,-1.59,-8.21,9.21
15.417964935302734,-4.06,2.31,-8.58,9.76
15.426467895507812,-5.55,6.65,-7.23,11.28
15.435927867889404,-8.95,11.56,-3.12,14.94
15.44605302810669,-12.09,16.28,2.96,20.49
15.456066846847534,-14.8,19.83,8.94,26.3
15.468384742736816,-17.08,21.11,13.18,30.18
15.477134704589844,-16.78,20.5,14.5,30.2
15.486267805099487,-13.59,18.6,14.31,27.11
15.4961256980896,-8.64,16.12,12.65,22.23
15.505957841873169,-4.11,13.18,9.43,16.71
15.517910957336426,-0.89,10.23,6.19,11.99
15.526468753814697,1.28,7.91,3.94,8.92
15.535992860794067,2.26,6.34,2.75,7.27
15.545851707458496,2.27,5.25,2.5,6.24
15.556066989898682,1.22,4.3,2.93,5.34
15.568214893341064,0.42,3.85,3.51,5.22
15.57655668258667,0.59,3.42,3.71,5.08
15.585922718048096,0.56,2.86,3.74,4.74
15.596065998077393,0.42,2.37,3.53,4.27
15.606055736541748,0.18,1.87,3.11,3.63
15.618010997772217,0.18,1.2,2.9,3.14
15.626601696014404,-0.05,1.05,2.79,2.98
15.636117935180664,-0.36,0.84,2.28,2.45
15.645953893661499,-0.54,0.23,1.73,1.82
15.656071901321411,-0.58,-0.39,1.06,1.26
15.66827392578125,-0.68,-1.05,0.45,1.32
15.67662787437439,-0.58,-1.45,0.22,1.57
15.685937881469727,-0.32,-1.54,-0.12,1.57
15.696022033691406,-0.55,-1.64,-0.63,1.84
15.706103801727295,-0.76,-2.08,-1.16,2.49
15.718352794647217,-0.83,-2.44,-1.73,3.1
15.72683572769165,-0.73,-2.69,-2.21,3.55
15.736227989196777,-0.5,-2.9,-2.29,3.72
15.745910882949829,-0.65,-2.83,-2.22,3.65
15.756005764007568,-1.2,-2.7,-2.1,3.62
15.768130779266357,-1.23,-2.61,-1.85,3.42
15.77662467956543,-1.18,-2.33,-1.79,3.16
15.785972833633423,-1.05,-2.52,-1.68,3.2
15.796082973480225,-0.78,-2.96,-1.6,3.45
15.806273937225342,-0.51,-3.18,-1.56,3.57
15.818307876586914,-0.34,-3.24,-1.38,3.53
15.826606750488281,-0.27,-3.23,-1.4,3.53
15.836004734039307,-0.32,-3.11,-1.54,3.48
15.846057891845703,-0.34,-2.9,-1.61,3.33
15.856290817260742,-0.28,-2.59,-1.64,3.07
15.868515968322754,-0.15,-2.27,-1.65,2.81
15.877007007598877,0.0,-1.9,-1.82,2.63
15.88625192642212,-0.04,-1.76,-1.79,2.51
15.896293878555298,0.03,-1.74,-1.6,2.36
15.906446933746338,0.24,-1.69,-1.39,2.2
15.918517827987671,0.38,-1.66,-1.13,2.04
15.926959991455078,0.24,-1.52,-0.89,1.77
15.936322689056396,-0.1,-1.32,-0.75,1.52
15.946138858795166,-0.45,-1.07,-0.61,1.31
15.956277847290039,-0.68,-0.82,-0.53,1.18
15.968209743499756,-0.5,-0.47,-0.73,1.0
15.97690200805664,-0.28,-0.13,-1.06,1.1
15.986347913742065,0.01,0.0,-1.21,1.21
15.996147871017456,0.22,0.01,-1.34,1.35
16.006340980529785,0.2,-0.03,-1.36,1.37
16.01851487159729,0.12,-0.12,-0.99,1.0
16.02670192718506,0.02,0.02,-0.5,0.5
16.036234855651855,0.01,0.03,-0.13,0.13
16.046198844909668,0.05,-0.27,0.19,0.33
16.056373834609985,0.02,-0.48,0.6,0.76
16.06832480430603,0.17,-0.5,0.89,1.03
16.076769828796387,0.11,-0.32,0.83,0.89
16.08617091178894,-0.1,-0.22,0.39,0.45
16.09616184234619,-0.08,-0.13,-0.2,0.25
16.10628890991211,0.26,0.0,-0.55,0.6
16.118719816207886,0.56,0.1,-0.19,0.59
16.12685203552246,-0.3,0.14,-1.65,1.68
16.13628387451172,-0.16,-0.05,-1.93,1.93
16.14615297317505,0.68,0.54,-1.85,2.04
