time,ax,ay,az,atotal
0.004381895065307617,0.34,0.76,0.09,0.83
0.012911081314086914,0.4,0.13,0.26,0.49
0.02284693717956543,0.06,-0.71,0.22,0.74
0.03157401084899902,-0.78,-0.81,-0.06,1.12
0.04437422752380371,-1.44,-0.62,-0.35,1.6
0.05337810516357422,-1.11,-0.26,-0.93,1.47
0.06287002563476562,0.31,0.31,-1.87,1.92
0.07284998893737793,1.41,1.34,-1.46,2.43
0.08156895637512207,1.33,1.53,-0.38,2.06
0.09430289268493652,0.5,0.54,0.28,0.78
0.10338521003723145,-0.16,-0.37,0.52,0.65
0.11302590370178223,-0.15,-0.28,0.48,0.57
0.12294411659240723,0.23,-0.06,0.35,0.42
0.13182806968688965,0.84,0.14,0.16,0.86
0.1448509693145752,1.31,0.2,-0.3,1.35
0.1536881923675537,1.28,-0.21,-0.66,1.45
0.1632840633392334,0.67,-0.9,-0.52,1.23
0.17319107055664062,0.11,-1.13,0.01,1.13
0.18187689781188965,0.12,-0.61,0.19,0.65
0.19429993629455566,0.24,-0.13,0.19,0.33
0.20360589027404785,0.2,-0.04,-0.03,0.2
0.21294188499450684,0.2,-0.03,-0.34,0.39
0.22333121299743652,-0.06,-0.11,-0.45,0.46
0.23171019554138184,-0.33,-0.1,-0.35,0.49
0.2447831630706787,-0.55,0.08,-0.12,0.56
0.25350022315979004,-0.8,0.07,0.45,0.92
0.26324009895324707,-0.81,-0.03,0.71,1.07
0.27302098274230957,-0.32,0.26,0.5,0.64
0.2819678783416748,0.14,0.43,0.26,0.52
0.2945220470428467,0.4,0.45,-0.08,0.6
0.3035581111907959,0.47,0.4,-0.07,0.62
0.3131370544433594,0.37,0.12,0.18,0.42
0.3231070041656494,0.16,-0.17,0.25,0.34
0.33173704147338867,-0.14,-0.2,0.71,0.75
0.3448011875152588,-0.3,-0.41,1.26,1.35
0.3538939952850342,-0.24,-1.06,1.37,1.74
0.36348605155944824,0.01,-0.83,1.09,1.37
0.3733189105987549,-0.12,0.11,1.38,1.38
0.3819701671600342,0.18,0.1,1.07,1.08
0.39478087425231934,0.8,-0.34,0.56,1.03
0.4036140441894531,0.94,-0.21,0.56,1.11
0.41328907012939453,0.68,0.18,0.76,1.03
0.4232971668243408,0.28,0.26,0.82,0.9
0.43197202682495117,-0.17,0.04,0.69,0.71
0.444896936416626,-0.56,-0.02,0.49,0.74
0.454179048538208,-0.72,0.11,0.3,0.78
0.4633629322052002,-0.81,0.16,0.18,0.84
0.4735591411590576,-0.67,0.18,-0.01,0.69
0.4821650981903076,-0.18,0.25,-0.24,0.39
0.49523305892944336,0.22,0.32,-0.36,0.52
0.5041711330413818,0.31,0.23,-0.39,0.54
0.513714075088501,0.18,0.01,-0.31,0.35
0.5237390995025635,-0.05,-0.27,-0.09,0.28
0.5321471691131592,-0.34,-0.64,0.18,0.74
0.5451030731201172,-0.57,-0.57,-0.75,1.1
0.5544040203094482,-0.84,-0.1,-1.71,1.9
0.5631639957427979,-0.59,-0.14,-1.71,1.81
0.5735330581665039,-0.18,-0.12,-1.46,1.47
0.581916093826294,-0.26,0.06,-0.79,0.83
0.5948522090911865,-0.07,-0.05,0.19,0.2
0.6039211750030518,0.02,-0.19,0.68,0.7
0.6131410598754883,0.02,-0.05,1.07,1.07
0.6233580112457275,0.06,0.25,1.31,1.33
0.6320359706878662,-0.14,0.26,1.02,1.06
0.6449871063232422,-0.44,-0.17,0.16,0.49
0.6542141437530518,-0.68,-0.03,-0.5,0.84
0.6634042263031006,-0.77,0.54,-0.88,1.28
0.6732950210571289,-0.71,0.53,-1.31,1.58
0.6819841861724854,-0.5,0.46,-1.69,1.82
0.6950089931488037,-0.41,0.33,-1.56,1.64
0.7041070461273193,-0.11,0.34,-0.86,0.93
0.7133960723876953,0.27,0.13,-0.2,0.36
0.7233378887176514,0.51,-0.17,0.05,0.53
0.7318341732025146,0.59,-0.17,0.25,0.66
0.7447290420532227,0.29,-0.16,0.46,0.56
0.7544341087341309,-0.27,-0.59,0.4,0.76
0.7633578777313232,-0.66,-1.03,-0.33,1.26
0.7734391689300537,-0.87,-0.84,-0.74,1.41
0.7820379734039307,-1.15,-0.56,-0.86,1.54
0.7950499057769775,-1.32,-0.58,-1.07,1.79
0.8043301105499268,-1.48,-0.78,-1.17,2.04
0.8134748935699463,-1.44,-0.67,-1.2,1.99
0.8236100673675537,-1.3,-0.18,-0.69,1.48
0.8319320678710938,-0.91,-0.18,0.35,0.99
0.845073938369751,-0.53,-0.93,1.12,1.54
0.8544189929962158,0.13,-1.25,1.24,1.76
0.8637411594390869,0.95,-0.85,1.0,1.62
0.8734161853790283,1.54,0.27,1.29,2.02
0.8821580410003662,1.6,0.94,1.83,2.6
0.8948929309844971,1.48,0.59,1.53,2.2
0.9037959575653076,1.44,0.11,1.15,1.84
0.9133501052856445,1.3,-0.26,0.98,1.64
0.9234869480133057,0.9,-0.55,0.37,1.11
0.9321460723876953,0.6,-0.44,-0.23,0.77
0.9448750019073486,0.63,-0.14,-0.57,0.86
0.9538760185241699,0.87,0.21,-0.3,0.94
0.9635400772094727,1.08,0.49,0.48,1.27
0.9734809398651123,0.85,0.71,1.6,1.94
0.9821178913116455,0.42,0.4,2.0,2.08
0.9948370456695557,-0.04,-0.11,1.61,1.61
1.0040230751037598,-0.02,-0.25,1.1,1.12
1.0135209560394287,0.18,0.08,0.93,0.95
1.0234870910644531,0.28,0.52,1.23,1.36
1.0322580337524414,0.14,0.72,1.33,1.51
1.0449669361114502,-0.12,0.42,0.98,1.07
1.0538361072540283,-0.72,-0.2,0.23,0.78
1.0633831024169922,-1.7,-0.64,-0.5,1.88
1.0735251903533936,-2.68,-0.97,-0.63,2.91
1.0821559429168701,-2.86,-1.02,-0.36,3.05
1.0949962139129639,-2.55,-0.96,-0.62,2.79
1.1040918827056885,-1.02,-0.75,-0.83,1.51
1.113671064376831,0.12,-0.55,-0.33,0.65
1.1236889362335205,0.06,-0.32,0.52,0.61
1.132256031036377,0.26,-0.39,0.86,0.97
1.1449549198150635,0.19,-0.23,0.84,0.89
1.154020071029663,0.35,-0.21,0.25,0.47
1.1636600494384766,0.88,-0.13,-0.58,1.06
1.173619031906128,0.83,0.01,-0.68,1.07
1.1822190284729004,0.18,-0.31,-0.6,0.69
1.1950030326843262,-0.42,-0.49,-0.64,0.9
1.2037620544433594,-0.23,-0.32,-0.97,1.04
1.2136709690093994,-0.18,-0.5,-1.17,1.28
1.2236230373382568,-0.08,-1.16,-1.02,1.54
1.2322840690612793,0.17,-1.39,-0.98,1.7
1.2449040412902832,0.27,-1.47,-0.77,1.68
1.254033088684082,0.32,-1.83,-0.55,1.93
1.2636260986328125,0.25,-2.52,-0.42,2.56
1.2736499309539795,0.29,-3.42,-0.03,3.43
1.2826180458068848,0.18,-4.46,0.41,4.48
1.2952191829681396,-0.08,-5.5,0.56,5.52
1.3039782047271729,-0.74,-6.13,-0.26,6.17
1.3136711120605469,-1.02,-6.77,-0.97,6.91
1.323707103729248,-0.98,-7.82,-1.62,8.04
1.3327009677886963,-0.69,-8.65,-2.16,8.94
1.345107078552246,-0.3,-9.2,-2.29,9.48
1.3541319370269775,0.07,-9.57,-2.42,9.87
1.3636510372161865,0.49,-9.99,-2.57,10.32
1.3737690448760986,0.44,-10.99,-2.78,11.34
1.382755994796753,-0.38,-11.94,-2.8,12.26
1.3953931331634521,-1.31,-13.07,-2.33,13.34
1.404102087020874,-2.24,-13.87,-1.92,14.18
1.4136240482330322,-3.03,-13.75,-1.92,14.21
1.4238111972808838,-1.87,-12.24,-2.21,12.57
1.432811975479126,0.5,-10.16,-2.78,10.54
1.4451959133148193,2.52,-7.77,-3.4,8.84
1.4541819095611572,4.17,-4.5,-2.99,6.82
1.4636650085449219,5.88,-2.17,-2.84,6.88
1.4736049175262451,5.99,-0.52,-3.2,6.81
1.4827501773834229,5.98,1.19,-2.6,6.62
1.4952220916748047,6.19,3.86,-0.17,7.29
1.5039069652557373,6.17,7.5,2.98,10.15
1.5137670040130615,7.39,10.6,4.98,13.84
1.524231195449829,8.96,13.13,6.58,17.2
1.5332019329071045,9.53,16.01,8.15,20.33
1.5453410148620605,8.58,18.5,8.28,22.0
1.554311990737915,7.23,19.26,6.4,21.54
1.564136028289795,6.72,18.58,3.31,20.03
1.5741679668426514,5.29,17.95,0.58,18.72
1.5833561420440674,2.33,17.43,-1.03,17.61
1.5956509113311768,0.52,16.66,-1.98,16.78
1.604029893875122,0.67,15.97,-2.47,16.17
1.6144602298736572,1.22,15.05,-2.46,15.29
1.6242749691009521,1.07,13.46,-2.04,13.65
1.6332790851593018,0.47,11.76,-1.21,11.83
1.645179033279419,0.38,10.39,-0.68,10.41
1.654237985610962,1.07,9.21,0.12,9.27
1.6637752056121826,1.41,8.28,1.0,8.45
1.6737902164459229,1.23,7.36,1.62,7.63
1.6828529834747314,1.21,6.44,1.89,6.81
1.6951310634613037,1.44,6.16,1.73,6.55
1.7042601108551025,1.55,5.92,1.08,6.21
1.7138221263885498,1.81,5.87,0.63,6.17
1.7236270904541016,2.29,5.86,0.63,6.32
1.7328720092773438,2.53,5.28,0.9,5.92
1.7452619075775146,2.51,4.37,0.86,5.11
1.7543351650238037,2.41,3.75,0.42,4.47
1.763916015625,2.49,3.12,-0.3,4.0
1.77388596534729,2.38,1.84,-1.05,3.18
1.782900094985962,2.17,0.5,-1.69,2.79
1.7953531742095947,2.25,-0.77,-2.03,3.12
1.8041810989379883,2.22,-2.32,-1.64,3.6
1.8139832019805908,2.24,-3.53,-0.86,4.26
1.8237450122833252,2.26,-4.11,-0.34,4.7
1.8330628871917725,2.33,-4.77,-0.49,5.33
1.8451621532440186,2.59,-5.65,-0.87,6.27
1.8545880317687988,1.97,-6.72,-1.02,7.07
1.8638300895690918,0.83,-7.38,-0.94,7.48
1.8738770484924316,0.06,-7.47,-0.74,7.5
1.8828909397125244,-0.1,-7.46,-0.53,7.47
1.895387887954712,0.18,-7.28,-0.5,7.29
1.9042541980743408,0.61,-6.92,-0.78,6.99
1.9140751361846924,1.09,-6.4,-1.16,6.59
1.9239740371704102,1.39,-6.33,-1.32,6.61
1.9329211711883545,1.43,-6.7,-1.4,6.99
1.9451470375061035,1.32,-6.74,-1.4,7.0
1.9543979167938232,0.94,-6.44,-1.06,6.59
1.963918924331665,0.42,-6.23,-0.59,6.27
1.9739749431610107,0.0,-6.06,-0.35,6.07
1.983100175857544,-0.05,-5.86,-0.23,5.86
1.9956080913543701,0.37,-5.54,-0.09,5.55
2.0044829845428467,0.9,-5.14,0.12,5.21
2.014055013656616,1.13,-4.85,0.38,4.99
2.0240650177001953,1.09,-4.71,0.52,4.86
2.0332109928131104,0.96,-4.48,0.55,4.61
2.0451629161834717,0.96,-4.03,0.45,4.16
2.054403066635132,0.98,-3.85,0.2,3.97
2.0640780925750732,0.82,-3.98,-0.08,4.06
2.0740549564361572,0.58,-4.06,-0.16,4.1
2.0829060077667236,0.28,-3.83,-0.16,3.84
2.09538197517395,0.04,-3.57,-0.18,3.57
2.1044631004333496,0.2,-3.63,-0.29,3.64
2.1141741275787354,0.43,-3.89,-0.33,3.92
2.123911142349243,0.55,-4.29,-0.42,4.34
2.1331350803375244,0.62,-4.93,-0.53,4.99
2.145447015762329,0.44,-5.72,-0.29,5.74
2.1545379161834717,0.12,-6.39,0.15,6.39
2.163914918899536,0.34,-6.84,0.5,6.86
2.174143075942993,0.73,-6.88,0.69,6.95
2.1831510066986084,0.69,-6.76,0.45,6.81
2.19530987739563,0.58,-7.11,-0.28,7.13
2.2044920921325684,-0.03,-7.74,-1.15,7.82
2.2142269611358643,-1.09,-8.4,-1.62,8.62
2.224041223526001,-1.55,-8.88,-1.67,9.16
2.2331368923187256,-1.34,-8.81,-2.25,9.19
2.245584011077881,-0.53,-7.65,-3.4,8.38
2.2546541690826416,1.1,-5.73,-4.01,7.07
2.264198064804077,3.17,-3.18,-3.43,5.65
2.2741281986236572,4.57,-1.05,-1.72,4.99
2.2831740379333496,4.32,0.41,-0.4,4.35
2.2956879138946533,3.11,1.28,0.07,3.36
2.304547071456909,1.94,1.68,-0.11,2.56
2.314413070678711,2.22,3.11,-0.15,3.82
2.324122190475464,3.24,5.95,0.41,6.78
2.333322048187256,5.02,8.58,1.32,10.02
2.345921039581299,5.54,10.85,2.61,12.45
2.354706048965454,4.76,12.56,4.05,14.02
2.3645741939544678,4.08,14.41,4.43,15.61
2.374805212020874,3.67,16.55,4.03,17.42
2.383833169937134,3.46,18.15,3.39,18.78
2.3960039615631104,3.81,18.02,1.67,18.49
2.404707193374634,3.13,17.85,0.3,18.12
2.416802167892456,2.2,17.0,-0.23,17.14
2.4247019290924072,1.32,15.28,-0.87,15.36
2.43365216255188,0.73,12.97,-1.24,13.04
2.445665121078491,0.38,10.68,-0.68,10.7
2.4545891284942627,0.4,8.84,0.62,8.87
2.46427321434021,0.63,7.49,1.93,7.76
2.4742929935455322,0.75,6.65,2.51,7.14
2.483070135116577,1.1,6.31,2.51,6.87
2.4957292079925537,1.63,5.88,2.07,6.44
2.5046331882476807,1.92,5.17,1.57,5.73
2.514375925064087,1.84,4.66,1.07,5.12
2.524170160293579,1.72,4.38,0.28,4.71
2.5333058834075928,1.86,3.84,-0.63,4.31
2.5457310676574707,1.9,3.1,-1.29,3.85
2.5547878742218018,1.57,2.28,-1.43,3.11
2.5643110275268555,1.48,1.41,-1.55,2.56
2.5742928981781006,1.49,0.15,-1.61,2.19
2.58345103263855,1.3,-1.3,-1.28,2.24
2.5956571102142334,0.97,-2.2,-0.99,2.6
2.6047298908233643,0.55,-2.85,-0.9,3.03
2.6143860816955566,0.33,-3.38,-0.75,3.47
2.624274969100952,0.38,-3.65,-0.39,3.69
2.633430004119873,0.54,-3.76,-0.22,3.8
2.64583420753479,0.65,-3.92,-0.19,3.97
2.6547210216522217,0.91,-4.08,-0.03,4.18
2.66442608833313,1.36,-4.27,-0.02,4.48
2.67438006401062,1.48,-4.53,-0.13,4.76
2.683532953262329,1.19,-4.74,-0.19,4.89
2.695805072784424,0.76,-5.0,-0.33,5.06
2.704943895339966,0.42,-5.18,-0.57,5.22
2.7144792079925537,0.32,-4.83,-0.76,4.89
2.7243950366973877,0.42,-4.42,-0.85,4.52
2.733311891555786,0.54,-4.42,-0.99,4.56
2.7458200454711914,0.61,-4.49,-0.91,4.62
2.7547171115875244,0.84,-4.26,-0.68,4.39
2.7665719985961914,1.19,-3.85,-0.58,4.07
2.77447509765625,1.36,-3.76,-0.51,4.03
2.7835850715637207,1.31,-3.88,-0.37,4.11
2.795811891555786,1.07,-4.04,-0.22,4.18
2.8047471046447754,0.84,-4.19,-0.03,4.27
2.816587209701538,0.71,-4.25,0.23,4.31
2.82442307472229,0.81,-4.19,0.41,4.28
2.8335659503936768,1.16,-4.25,0.43,4.42
2.8459200859069824,1.42,-4.4,0.27,4.63
2.854801893234253,1.41,-4.64,-0.17,4.85
2.8665611743927,1.37,-4.82,-0.53,5.03
2.874458074569702,1.15,-5.02,-0.47,5.17
2.883573055267334,0.93,-5.31,-0.37,5.4
2.895972967147827,0.66,-5.6,-0.43,5.65
2.904973030090332,0.21,-5.81,-0.46,5.83
2.916666030883789,-0.06,-5.94,-0.5,5.96
2.924453020095825,0.23,-5.9,-0.76,5.95
2.933547019958496,0.86,-5.96,-0.9,6.08
2.945923089981079,1.51,-6.55,-1.15,6.81
2.9550559520721436,1.77,-7.42,-1.58,7.79
2.9665420055389404,1.53,-8.28,-1.55,8.56
2.974579095840454,1.18,-9.3,-1.46,9.48
2.9834840297698975,0.71,-10.46,-1.81,10.63
2.9963719844818115,-0.32,-11.33,-2.05,11.51
3.0052731037139893,-1.28,-11.7,-2.28,11.98
3.0168540477752686,-1.89,-11.06,-2.45,11.48
3.024564027786255,-2.08,-10.08,-2.68,10.63
3.0335628986358643,-0.05,-8.95,-3.53,9.62
3.0460000038146973,2.73,-6.45,-3.79,7.96
3.0549099445343018,4.27,-3.07,-3.06,6.08
3.066736936569214,4.66,-0.77,-2.14,5.18
3.0746231079101562,4.43,0.59,-1.24,4.63
3.0834760665893555,4.93,2.48,-0.04,5.51
3.0960021018981934,5.68,5.63,1.88,8.21
3.1049811840057373,6.25,8.68,3.26,11.18
3.117345094680786,6.77,10.91,3.85,13.4
3.1251561641693115,5.81,13.1,4.59,15.04
3.1334989070892334,4.15,14.8,4.95,16.14
3.146484136581421,3.18,16.26,4.18,17.08
3.1552200317382812,3.78,17.9,2.87,18.51
3.1672861576080322,4.5,19.0,0.35,19.52
3.175049066543579,3.74,19.27,-1.26,19.66
3.183516025543213,2.11,18.01,-2.42,18.29
3.1965219974517822,0.86,16.03,-2.79,16.29
3.2051210403442383,0.36,13.81,-1.82,13.93
3.2173500061035156,0.41,11.73,-0.11,11.73
3.224601984024048,0.45,9.75,1.45,9.86
3.2335431575775146,0.31,8.08,2.85,8.57
3.2461490631103516,0.38,7.01,3.75,7.95
3.2551910877227783,0.55,6.41,3.86,7.5
3.2668449878692627,0.55,5.95,3.16,6.75
3.2745890617370605,0.54,5.64,2.07,6.03
3.283405065536499,0.56,5.31,1.0,5.43
3.2959182262420654,0.85,5.0,0.34,5.08
3.3051609992980957,1.5,4.57,-0.1,4.81
3.316870927810669,1.85,3.91,-0.39,4.34
3.324704885482788,1.62,2.96,-0.72,3.45
3.3334639072418213,1.33,1.78,-1.08,2.47
3.3461320400238037,1.05,0.68,-1.23,1.75
3.3550961017608643,0.66,-0.31,-1.14,1.35
3.367253065109253,0.37,-1.22,-1.06,1.65
3.3748619556427,0.44,-1.91,-0.83,2.12
3.383527994155884,0.62,-2.12,-0.45,2.25
3.3962008953094482,0.84,-2.2,-0.18,2.36
3.4051170349121094,1.43,-2.42,0.06,2.81
3.417048215866089,2.03,-2.84,0.21,3.49
3.424819231033325,1.87,-3.34,0.1,3.82
3.4334230422973633,1.4,-3.81,-0.34,4.07
3.4463250637054443,1.16,-4.27,-0.73,4.48
3.45532488822937,0.88,-4.69,-0.98,4.87
3.4671518802642822,0.65,-4.79,-0.95,4.92
3.474790096282959,0.63,-4.58,-0.77,4.68
3.483509063720703,0.55,-4.59,-0.69,4.67
3.496354103088379,0.65,-4.62,-0.77,4.72
3.5052590370178223,0.78,-4.36,-0.84,4.5
3.517120122909546,0.84,-4.13,-0.93,4.31
3.524772882461548,0.99,-4.26,-1.04,4.49
3.5334489345550537,0.89,-4.54,-0.92,4.71
3.546157121658325,0.58,-4.58,-0.75,4.67
3.555204153060913,0.46,-4.26,-0.66,4.33
3.56718111038208,0.59,-3.89,-0.54,3.97
3.5747759342193604,0.69,-3.57,-0.29,3.64
3.5835559368133545,0.81,-3.37,-0.12,3.46
3.596165895462036,0.87,-3.29,0.03,3.4
3.605114221572876,0.86,-3.24,0.18,3.35
3.617258071899414,0.96,-2.96,0.37,3.13
3.624861001968384,1.07,-2.73,0.54,2.98
3.633641004562378,1.17,-2.68,0.55,2.97
3.6462020874023438,1.07,-2.65,0.48,2.89
3.655359983444214,0.73,-2.49,0.53,2.64
3.667185068130493,0.32,-2.4,0.44,2.46
3.674976110458374,0.07,-2.43,0.1,2.43
3.6836979389190674,-0.01,-2.46,-0.04,2.46
3.6963260173797607,-0.07,-2.47,-0.2,2.47
3.705357074737549,-0.05,-2.4,-0.41,2.43
3.7172670364379883,-0.18,-2.37,-0.61,2.45
3.7250311374664307,-0.32,-2.52,-0.95,2.71
3.7336652278900146,-0.24,-2.71,-1.14,2.94
3.7464191913604736,-0.35,-2.78,-1.03,2.98
3.755444049835205,-0.29,-2.6,-0.81,2.73
3.767185926437378,0.06,-2.65,-0.64,2.72
3.774912118911743,0.32,-3.06,-0.6,3.13
3.78369402885437,0.26,-3.63,-0.51,3.67
3.7963500022888184,0.01,-4.39,-0.52,4.42
3.80523419380188,-0.45,-5.26,-0.52,5.3
3.8173320293426514,-0.91,-6.09,-0.49,6.17
3.824939012527466,-1.02,-6.86,-0.5,6.95
3.833757162094116,-0.99,-7.67,-0.58,7.75
3.846356153488159,-0.77,-8.03,-0.95,8.12
3.8554370403289795,-0.16,-8.11,-1.43,8.23
3.867357015609741,0.49,-8.39,-1.61,8.55
3.874840021133423,0.68,-8.14,-1.61,8.32
3.8838069438934326,0.64,-7.79,-1.65,7.98
3.8965342044830322,0.54,-7.83,-1.72,8.03
3.9054250717163086,0.25,-7.52,-1.68,7.7
3.9175121784210205,0.23,-6.87,-1.82,7.11
3.9249720573425293,1.06,-6.19,-2.06,6.6
3.9337940216064453,2.28,-4.79,-1.95,5.65
3.946392059326172,3.1,-2.84,-1.39,4.42
3.9556491374969482,4.8,0.03,-1.43,5.0
3.9674060344696045,6.03,3.14,-0.94,6.86
3.9750258922576904,6.18,6.13,0.54,8.72
3.983779191970825,5.74,9.32,2.43,11.21
3.9965929985046387,5.6,12.33,4.21,14.18
4.005563974380493,6.14,14.05,4.79,16.06
4.018024206161499,6.23,14.92,4.36,16.74
4.025799036026001,5.43,15.55,3.31,16.8
4.034118890762329,4.23,15.6,2.41,16.34
4.047327041625977,2.73,15.5,1.67,15.82
4.055685043334961,1.8,15.07,0.75,15.19
4.068015098571777,1.86,14.36,0.08,14.48
4.0755980014801025,1.79,13.24,0.09,13.36
4.084065198898315,1.06,11.7,0.37,11.75
4.096510171890259,0.19,10.06,0.78,10.09
4.105556011199951,-0.13,8.79,1.14,8.86
4.117775201797485,0.2,7.94,1.57,8.09
4.125054121017456,0.71,7.46,2.18,7.8
4.1339240074157715,1.14,7.08,2.52,7.6
4.14653205871582,1.27,6.81,2.42,7.33
4.155572175979614,1.38,6.73,1.88,7.12
4.1677210330963135,1.84,6.51,1.15,6.86
4.175110101699829,2.08,5.91,0.42,6.27
4.1840431690216064,2.03,5.2,-0.04,5.58
4.196492910385132,2.27,4.57,0.0,5.1
4.205554008483887,2.6,3.66,0.32,4.5
4.217661142349243,2.98,2.61,0.67,4.01
4.225190877914429,3.18,2.02,0.68,3.82
4.233942031860352,2.89,1.26,0.15,3.15
4.246579885482788,2.42,0.02,-0.63,2.5
4.255865097045898,2.22,-0.96,-1.15,2.67
4.267616033554077,1.92,-1.78,-1.3,2.92
4.275192022323608,1.82,-2.95,-1.32,3.7
4.283987998962402,2.05,-3.7,-1.17,4.38
4.29668116569519,1.87,-4.04,-1.0,4.56
4.305613994598389,1.03,-4.44,-0.92,4.64
4.317824125289917,0.35,-4.87,-0.85,4.95
4.325210094451904,0.14,-5.31,-0.72,5.36
4.334147214889526,0.11,-5.84,-0.52,5.86
4.346781969070435,0.27,-5.77,-0.3,5.78
4.355740070343018,0.54,-5.3,-0.13,5.32
4.367834091186523,0.88,-5.14,-0.12,5.21
4.375237226486206,1.08,-5.31,-0.21,5.42
4.3841941356658936,0.87,-5.38,-0.57,5.47
4.396756887435913,0.3,-5.3,-0.87,5.37
4.405705213546753,-0.34,-5.27,-0.95,5.36
4.41798210144043,-0.52,-4.81,-0.95,4.93
4.425410985946655,-0.1,-4.25,-1.0,4.36
4.434138059616089,0.29,-4.33,-1.06,4.46
4.446641206741333,0.4,-4.64,-1.06,4.77
4.456176042556763,0.25,-4.74,-0.88,4.82
4.468357086181641,0.17,-4.82,-0.66,4.86
4.475441217422485,0.18,-5.02,-0.44,5.04
4.484285116195679,0.26,-4.99,-0.13,4.99
4.497514009475708,0.39,-4.94,0.14,4.95
4.506102085113525,0.42,-5.22,0.07,5.23
4.51852822303772,0.39,-5.47,-0.15,5.48
4.525490045547485,0.2,-5.54,-0.34,5.55
4.534319162368774,-0.1,-5.51,-0.49,5.53
4.547450065612793,-0.38,-5.58,-0.66,5.63
4.55607008934021,-0.46,-5.62,-0.68,5.67
4.568524122238159,-0.36,-5.51,-0.59,5.55
4.575433969497681,-0.22,-5.42,-0.45,5.44
4.584228038787842,-0.08,-5.72,-0.33,5.73
4.5974390506744385,-0.01,-6.31,-0.35,6.31
4.605859041213989,-0.1,-6.94,-0.45,6.95
4.618032217025757,-0.27,-7.35,-0.47,7.36
4.625455141067505,-0.64,-7.4,-0.43,7.44
4.63431191444397,-0.75,-7.45,-0.76,7.52
4.647145986557007,-0.06,-7.74,-1.51,7.88
4.65587592124939,0.47,-7.65,-2.03,7.92
4.668020009994507,0.75,-7.33,-2.36,7.73
4.675493001937866,1.18,-7.52,-2.77,8.1
4.68421196937561,1.25,-7.51,-2.74,8.09
4.6972410678863525,0.54,-7.42,-2.49,7.84
4.705847978591919,-0.2,-7.47,-2.48,7.87
4.718130111694336,0.08,-6.82,-2.41,7.23
4.72551703453064,0.85,-5.7,-2.0,6.1
4.73422908782959,2.09,-3.8,-1.47,4.57
4.747268915176392,3.5,-1.6,0.06,3.84
4.755937099456787,4.67,0.73,2.13,5.18
4.768160104751587,5.45,3.46,3.64,7.41
4.775506019592285,5.75,6.09,3.74,9.17
4.784329175949097,6.33,8.34,2.92,10.86
4.7974159717559814,6.08,10.51,2.67,12.43
4.806078195571899,5.69,12.31,2.73,13.83
4.8186938762664795,5.58,13.85,2.93,15.21
4.826223134994507,5.27,14.54,2.63,15.68
4.83479905128479,4.78,15.18,1.71,16.0
4.847784042358398,3.9,15.8,0.81,16.29
4.856083154678345,3.08,15.75,-0.18,16.04
4.868690013885498,2.69,15.11,-0.45,15.35
4.8760740756988525,2.09,14.14,0.12,14.29
4.884462118148804,1.45,12.74,1.04,12.86
4.897644996643066,1.08,11.27,2.13,11.52
4.906076192855835,1.13,9.97,3.11,10.5
4.918328046798706,0.81,8.8,3.72,9.58
4.925431966781616,0.08,7.89,3.88,8.79
4.934209108352661,-0.16,7.4,3.67,8.26
4.947359085083008,0.36,7.26,3.36,8.0
4.95598292350769,1.05,7.33,2.84,7.93
4.968573093414307,1.74,7.36,2.19,7.87
4.975611925125122,2.01,7.61,1.93,8.1
4.984432935714722,2.11,7.43,1.51,7.87
4.997491121292114,2.24,6.69,0.65,7.08
5.006090879440308,2.39,5.86,0.05,6.32
5.018426179885864,2.4,4.95,0.01,5.5
5.025669097900391,2.57,3.59,-0.13,4.41
5.0344531536102295,2.58,1.94,-0.4,3.25
5.047377109527588,2.36,0.59,-0.58,2.5
5.05609393119812,2.49,-0.37,-0.32,2.53
5.068351984024048,2.82,-1.0,0.09,2.99
5.0756919384002686,3.1,-1.38,0.16,3.39
5.0844409465789795,3.42,-2.04,-0.05,3.98
5.097378969192505,3.25,-2.83,-0.26,4.31
5.1060590744018555,2.55,-3.5,-0.43,4.35
5.118360996246338,1.76,-4.09,-0.64,4.49
5.125654935836792,1.27,-4.63,-0.95,4.89
5.134459018707275,1.42,-5.05,-1.27,5.39
5.147588014602661,1.74,-5.51,-1.09,5.88
5.1561009883880615,1.92,-5.6,-0.63,5.95
5.1687140464782715,1.86,-5.55,-0.25,5.85
5.175624132156372,1.61,-5.86,-0.22,6.08
5.184492111206055,1.49,-6.0,-0.48,6.2
5.197551012039185,1.36,-5.87,-0.56,6.05
5.206163167953491,1.27,-5.73,-0.5,5.89
5.218703985214233,1.26,-5.48,-0.6,5.65
5.225731134414673,1.17,-5.14,-0.82,5.33
5.234523057937622,1.24,-4.87,-1.02,5.12
5.247673034667969,1.46,-4.66,-1.04,4.99
5.256213903427124,1.58,-4.57,-1.12,4.96
5.268471002578735,1.51,-4.5,-1.25,4.9
5.2756922245025635,1.3,-4.41,-1.24,4.76
5.284435033798218,1.02,-4.33,-1.01,4.56
5.297608137130737,0.72,-4.4,-0.67,4.5
5.306112051010132,0.6,-4.44,-0.46,4.5
5.318779230117798,0.76,-4.21,-0.24,4.28
5.325797080993652,0.98,-3.92,0.02,4.04
5.33450722694397,1.13,-3.78,0.15,3.94
5.347615003585815,1.27,-3.61,0.21,3.83
5.356262922286987,1.16,-3.81,0.3,3.99
5.368733167648315,0.81,-4.18,0.25,4.26
5.375852108001709,0.47,-4.4,-0.01,4.42
5.384679079055786,0.14,-4.56,-0.19,4.56
5.397753000259399,-0.25,-4.69,-0.31,4.7
5.406292200088501,-0.43,-4.81,-0.65,4.87
5.418845891952515,-0.28,-4.9,-0.99,5.0
5.4258880615234375,-0.05,-4.99,-1.11,5.11
5.434701204299927,0.04,-4.93,-1.08,5.04
5.44766902923584,0.14,-5.05,-1.04,5.15
5.456294059753418,0.21,-5.5,-0.95,5.58
5.468692064285278,0.04,-5.8,-0.9,5.86
5.475894212722778,-0.14,-6.1,-1.02,6.18
5.484723091125488,-0.06,-6.41,-1.38,6.55
5.497894048690796,-0.03,-6.58,-1.83,6.82
5.5062901973724365,-0.09,-6.88,-2.13,7.2
5.518812894821167,-0.29,-7.01,-2.19,7.34
5.525907039642334,-0.7,-6.83,-2.1,7.17
5.53468918800354,-0.47,-6.47,-2.56,6.97
5.547861099243164,0.55,-5.87,-2.94,6.58
5.556309938430786,1.12,-5.28,-2.45,5.92
5.56881308555603,1.4,-4.59,-1.51,5.03
5.575906991958618,1.26,-3.65,-0.17,3.86
5.584657907485962,1.49,-2.58,1.04,3.15
5.59771203994751,2.02,-1.59,2.21,3.39
5.606297016143799,1.63,-1.09,2.97,3.55
5.618754148483276,1.63,-0.74,2.57,3.13
5.625972032546997,1.42,-0.32,1.89,2.38
5.6347901821136475,0.09,0.22,1.51,1.52
5.647823095321655,-0.78,0.66,0.64,1.2
5.656485080718994,-0.22,1.37,-0.53,1.48
5.668824911117554,0.92,2.44,-0.99,2.78
5.675993204116821,1.18,3.84,-0.5,4.04
5.684742212295532,0.97,5.43,0.29,5.52
5.697871923446655,1.59,6.99,0.85,7.21
5.706449031829834,2.57,8.42,1.32,8.9
5.718874216079712,2.88,9.06,1.94,9.7
5.7260260581970215,2.15,9.08,2.09,9.56
5.734730005264282,0.93,8.98,2.24,9.3
5.74785590171814,0.47,8.4,2.02,8.65
5.756464004516602,0.45,7.74,1.33,7.86
5.768781900405884,0.52,7.73,0.82,7.79
5.776127099990845,0.61,8.37,0.75,8.42
5.784814119338989,0.74,8.59,1.17,8.7
5.797993898391724,1.11,8.92,1.65,9.13
5.806457042694092,1.75,9.82,1.82,10.13
5.819080114364624,2.63,10.73,1.86,11.2
5.8267340660095215,3.07,11.62,1.8,12.15
5.835253000259399,3.77,12.45,1.59,13.1
5.848273038864136,4.06,12.7,0.67,13.35
5.856611967086792,3.96,11.95,-0.43,12.59
5.868887186050415,4.32,11.46,-0.94,12.28
5.876338005065918,4.92,11.07,-0.7,12.13
5.884783029556274,5.93,10.17,-0.18,11.77
5.897845029830933,6.53,9.15,0.99,11.28
5.906527996063232,6.56,7.76,1.82,10.32
5.918968915939331,6.76,6.68,2.0,9.71
5.926044225692749,6.82,5.85,1.84,9.17
5.9348061084747314,6.77,5.24,1.48,8.68
5.947999000549316,6.84,4.89,0.98,8.46
5.956668138504028,7.29,4.67,0.54,8.67
5.968905210494995,7.04,3.72,0.17,7.96
5.976167917251587,6.36,2.32,-0.27,6.77
5.984891176223755,5.71,1.44,-0.1,5.88
5.997900009155273,5.51,0.49,0.35,5.54
6.006596088409424,6.25,-0.57,0.0,6.27
6.018961191177368,6.61,-1.55,-0.3,6.79
6.026209115982056,5.28,-2.46,-0.42,5.84
6.034972906112671,4.02,-3.46,-0.97,5.39
6.048089027404785,3.31,-4.47,-1.63,5.79
6.0566651821136475,2.81,-5.51,-2.37,6.62
6.068835973739624,2.35,-5.82,-2.65,6.81
6.076062917709351,2.35,-5.62,-2.17,6.46
6.084952116012573,2.03,-6.25,-1.43,6.72
6.0981550216674805,1.95,-6.19,-0.84,6.54
6.106642961502075,1.74,-5.98,-0.33,6.23
6.1188130378723145,1.26,-6.25,-0.06,6.37
6.126319169998169,1.2,-6.33,-0.13,6.44
6.134976148605347,1.3,-6.37,-0.21,6.5
6.148083925247192,0.91,-6.81,-0.25,6.87
6.156677961349487,0.04,-7.38,-0.32,7.38
6.168987035751343,-0.76,-7.23,-0.37,7.27
6.176282167434692,-1.2,-7.14,-0.4,7.25
6.185013055801392,-1.22,-7.44,-0.7,7.57
6.198401212692261,-1.6,-7.75,-0.99,7.97
6.206629991531372,-2.49,-7.75,-1.0,8.2
6.218938112258911,-3.19,-7.41,-0.91,8.11
6.226274013519287,-3.5,-7.16,-1.14,8.05
6.235063076019287,-3.47,-6.93,-1.34,7.86
6.248058080673218,-3.48,-6.43,-1.21,7.41
6.25665020942688,-3.54,-5.68,-0.95,6.75
6.268654108047485,-3.15,-5.29,-0.73,6.19
6.276298999786377,-2.94,-5.56,-0.46,6.3
6.285039186477661,-3.15,-5.7,-0.48,6.53
6.298207998275757,-3.6,-5.37,-0.66,6.49
6.307032108306885,-3.92,-4.85,-0.52,6.25
6.318732976913452,-3.58,-4.5,-0.63,5.78
6.326458215713501,-3.37,-4.34,-0.71,5.54
6.335155010223389,-3.3,-3.9,-0.45,5.12
6.34817099571228,-2.79,-3.56,-0.16,4.52
6.356997013092041,-1.91,-3.51,-0.03,3.99
6.368788003921509,-1.13,-3.63,-0.44,3.82
6.37642502784729,-0.07,-3.42,-1.03,3.57
6.38516902923584,0.44,-3.7,-0.88,3.82
6.398298025131226,-0.18,-4.7,-0.67,4.75
6.4068381786346436,-0.63,-5.85,-0.72,5.92
6.418804883956909,-0.96,-6.85,-0.62,6.94
6.426400899887085,-0.8,-7.47,-0.45,7.52
6.435204029083252,0.25,-7.34,-0.7,7.37
6.4481799602508545,1.5,-6.71,-1.29,6.99
6.456865072250366,2.81,-5.84,-1.82,6.73
6.468563079833984,3.77,-5.48,-2.29,7.03
6.476294040679932,4.05,-5.31,-2.26,7.05
6.484986066818237,4.56,-5.03,-1.93,7.05
6.49821400642395,5.19,-5.11,-1.59,7.45
6.506897211074829,5.75,-5.13,-1.41,7.83
6.518687009811401,6.72,-4.41,-1.87,8.25
6.526487112045288,7.51,-3.68,-2.02,8.6
6.5352160930633545,6.83,-3.39,-1.68,7.8
6.548310995101929,6.75,-3.27,-1.77,7.7
6.556762933731079,7.26,-3.05,-1.47,8.01
6.568587064743042,7.67,-2.31,-1.09,8.08
6.576550006866455,8.32,-1.44,-0.83,8.48
6.5852210521698,8.85,-0.42,-0.36,8.86
6.598330020904541,9.3,0.96,-0.18,9.35
6.606813192367554,9.11,2.08,-0.05,9.34
6.618613958358765,8.11,2.84,0.38,8.6
6.626449108123779,7.2,3.56,0.37,8.04
6.635195016860962,6.75,4.77,-0.12,8.26
6.6483190059661865,6.7,6.76,0.2,9.51
6.656983137130737,6.47,9.76,0.83,11.73
6.66871190071106,6.3,12.44,0.88,13.97
6.6769700050354,5.66,14.6,0.63,15.67
6.685991048812866,4.79,15.84,0.35,16.55
6.698886156082153,4.16,16.0,-0.68,16.54
6.707017183303833,3.19,15.59,-1.37,15.97
6.718744993209839,1.57,14.0,-1.67,14.18
6.727261066436768,0.49,12.13,-0.86,12.17
6.73581600189209,0.13,10.76,0.95,10.8
6.748723030090332,0.58,9.94,2.9,10.37
6.757073163986206,1.01,9.68,4.41,10.68
6.768534898757935,1.47,9.61,5.09,10.97
6.776966094970703,1.99,9.85,5.1,11.26
6.785521030426025,2.35,9.77,4.6,11.05
6.798417091369629,2.82,9.21,3.55,10.26
6.807003021240234,3.07,8.63,1.99,9.37
6.8185131549835205,3.33,7.77,0.1,8.45
6.826667070388794,3.84,6.98,-1.4,8.08
6.835424184799194,2.99,5.68,-1.73,6.64
6.848397970199585,1.44,3.85,-1.82,4.49
6.857009172439575,0.78,2.67,-1.51,3.16
6.8683788776397705,0.98,1.97,-0.73,2.31
6.8765740394592285,1.53,2.07,0.1,2.57
6.8853600025177,2.09,2.58,0.84,3.42
6.898428201675415,2.7,2.46,1.15,3.82
6.907149076461792,3.02,2.15,1.29,3.92
6.918565988540649,1.87,1.43,1.12,2.6
6.926664113998413,1.07,1.08,0.53,1.61
6.935467004776001,1.27,0.81,-0.06,1.5
6.94864821434021,2.01,0.24,-0.33,2.05
6.956995010375977,2.18,0.25,-0.33,2.21
6.968439102172852,1.92,0.32,-0.64,2.04
6.976787090301514,2.24,-0.23,-1.51,2.71
6.9854419231414795,2.0,-1.41,-2.04,3.18
6.998530149459839,1.06,-2.34,-1.98,3.24
7.007153034210205,0.38,-3.09,-1.94,3.66
7.018409013748169,0.56,-3.5,-2.09,4.11
7.026716947555542,1.05,-3.76,-2.13,4.44
7.035671949386597,1.35,-3.72,-1.57,4.25
7.048602104187012,1.13,-3.8,-0.81,4.04
7.057228088378906,0.79,-4.16,-0.61,4.27
7.068523168563843,0.99,-4.06,-0.74,4.24
7.076886892318726,1.68,-3.84,-0.73,4.25
7.0855491161346436,2.13,-4.35,-0.52,4.87
7.098724126815796,1.88,-5.11,-0.32,5.45
7.107196092605591,0.71,-5.99,-0.52,6.05
7.118563890457153,0.22,-6.16,-0.67,6.2
7.126698017120361,0.73,-6.26,-0.51,6.32
7.1356260776519775,0.54,-6.84,-0.42,6.87
7.14870810508728,-0.01,-7.25,-0.26,7.25
7.157250165939331,-0.07,-6.94,0.22,6.94
7.168499231338501,0.29,-6.73,0.57,6.76
7.176745176315308,0.48,-6.84,0.58,6.88
7.185297012329102,0.37,-6.72,0.58,6.75
7.198731184005737,0.05,-6.5,0.44,6.51
7.207230091094971,-0.17,-6.58,0.06,6.58
7.218487977981567,-0.18,-6.75,-0.16,6.75
7.226591110229492,-0.21,-6.75,0.03,6.75
7.235631227493286,-0.39,-6.69,0.15,6.7
7.248715162277222,-0.71,-6.74,0.23,6.78
7.2570130825042725,-0.88,-6.71,0.23,6.77
7.26819920539856,-0.76,-6.55,0.17,6.59
7.276976108551025,-0.74,-6.17,0.44,6.22
7.2856528759002686,-0.95,-5.34,0.6,5.45
7.29891300201416,-1.05,-4.49,0.32,4.62
7.3073530197143555,-1.13,-4.06,-0.07,4.21
7.3183839321136475,-1.48,-3.82,-0.13,4.09
7.3269500732421875,-1.98,-3.76,0.23,4.25
7.335747003555298,-2.34,-3.78,0.71,4.5
7.348678112030029,-2.2,-3.98,0.79,4.61
7.3574910163879395,-1.26,-3.62,0.61,3.88
7.3682849407196045,-0.18,-3.25,0.37,3.27
7.376976013183594,0.09,-3.74,0.13,3.74
7.385613203048706,-0.67,-4.86,-0.15,4.9
7.3988800048828125,-1.74,-5.87,-0.72,6.16
7.407294034957886,-2.29,-6.54,-1.83,7.16
7.41841721534729,-1.56,-6.79,-2.85,7.52
7.426923990249634,-0.2,-6.81,-2.95,7.42
7.435715913772583,0.73,-6.79,-2.53,7.28
7.44903302192688,0.84,-7.08,-2.01,7.4
7.457460165023804,0.81,-7.16,-1.82,7.43
7.468306064605713,1.24,-6.71,-1.78,7.05
7.47698712348938,2.19,-6.5,-1.7,7.06
7.485706090927124,2.97,-5.42,-1.96,6.48
7.498938083648682,3.18,-4.03,-2.7,5.8
7.50738000869751,3.63,-3.36,-2.97,5.76
7.518208026885986,4.12,-3.31,-2.1,5.68
7.5270280838012695,4.7,-2.98,-1.45,5.75
7.535744905471802,5.01,-3.11,-0.94,5.97
7.548813104629517,5.39,-2.53,-0.34,5.96
7.5574119091033936,6.07,-2.06,0.2,6.41
7.567824125289917,5.99,-1.7,-0.04,6.22
7.577099084854126,6.23,-0.7,-0.97,6.34
7.585808992385864,6.86,0.09,-1.74,7.07
7.598989009857178,7.75,1.39,-1.79,8.07
7.6074559688568115,7.68,2.21,-1.26,8.09
7.618005037307739,6.73,2.72,-0.98,7.32
7.627084016799927,6.18,4.06,-1.13,7.48
7.635847091674805,6.76,5.85,-0.82,8.97
7.648829221725464,7.61,7.26,-0.29,10.52
7.657510042190552,7.14,7.7,0.44,10.51
7.667680978775024,5.58,7.84,1.26,9.7
7.67718505859375,4.59,8.24,1.31,9.52
7.685815095901489,4.96,9.28,0.43,10.53
7.699304103851318,4.83,10.27,-0.54,11.36
7.707616090774536,3.98,11.08,-1.97,11.93
7.71783709526062,2.93,11.69,-3.42,12.52
7.727525949478149,2.34,11.69,-4.18,12.63
7.736356973648071,2.25,11.74,-3.65,12.49
7.749237060546875,2.21,12.07,-1.82,12.4
7.75766396522522,2.39,11.58,0.02,11.82
7.767755031585693,2.56,10.42,1.52,10.83
7.777125120162964,2.26,9.18,2.99,9.91
7.785881996154785,1.53,7.47,3.75,8.49
7.799004077911377,1.15,6.33,4.3,7.73
7.80743408203125,1.26,6.08,4.92,7.92
7.817744970321655,1.9,6.18,4.77,8.03
7.827234983444214,2.61,6.31,3.63,7.73
7.835970163345337,2.67,6.2,2.33,7.14
7.848910093307495,2.01,5.79,1.05,6.21
7.857618093490601,1.72,5.39,-0.35,5.66
7.867760896682739,1.8,5.02,-1.03,5.43
7.877168893814087,1.83,4.27,-0.93,4.73
7.885879039764404,2.01,3.96,-0.39,4.45
7.8990209102630615,2.46,3.91,0.37,4.63
7.907593011856079,3.21,3.74,0.73,4.98
7.917779207229614,3.81,3.59,0.71,5.28
7.927172899246216,3.8,3.02,-0.12,4.85
7.935971975326538,3.32,2.3,-1.07,4.17
7.9491260051727295,2.9,2.1,-1.24,3.78
7.957603216171265,2.56,1.52,-0.87,3.1
7.967577219009399,2.52,0.65,-0.57,2.66
7.977230072021484,2.42,0.2,0.12,2.43
7.985995054244995,2.32,-0.66,0.52,2.46
7.9991209506988525,2.07,-2.06,0.25,2.93
8.007781028747559,1.61,-2.48,-0.02,2.95
8.017572164535522,1.48,-1.92,0.2,2.43
8.02701210975647,1.77,-2.28,0.2,2.89
8.036086082458496,2.39,-2.52,-0.22,3.48
8.049131155014038,2.23,-2.65,-0.67,3.52
8.05776309967041,1.42,-3.44,-1.15,3.89
8.067505121231079,0.82,-4.18,-1.43,4.49
8.077677965164185,0.9,-4.1,-1.38,4.41
8.085991144180298,1.04,-4.49,-1.03,4.72
8.099131107330322,0.77,-5.52,-0.8,5.63
8.107733964920044,0.21,-6.02,-0.37,6.03
8.117611169815063,-0.45,-6.13,0.17,6.14
8.127740144729614,-0.71,-6.19,0.34,6.23
8.136012077331543,-0.48,-6.24,0.42,6.27
8.149040937423706,-0.27,-6.18,0.44,6.2
8.157742023468018,-0.37,-6.02,0.59,6.06
8.16739010810852,-0.9,-5.92,0.76,6.03
8.177711009979248,-1.15,-5.58,0.79,5.75
8.185980081558228,-0.8,-4.92,0.82,5.05
8.19909119606018,-0.19,-4.27,0.63,4.32
8.207556962966919,-0.19,-3.82,0.39,3.84
8.217710018157959,-0.45,-3.56,0.15,3.59
8.227524995803833,-0.89,-3.56,0.08,3.67
8.236034154891968,-1.22,-3.77,0.08,3.96
8.249007940292358,-1.16,-3.76,0.13,3.93
8.257814168930054,-0.96,-3.68,0.31,3.81
8.267153978347778,-0.89,-3.85,0.31,3.96
8.277827024459839,-0.88,-4.2,0.25,4.29
8.286155939102173,-1.03,-4.27,0.24,4.39
8.298983097076416,-1.09,-3.85,0.26,4.0
8.307898044586182,-0.95,-3.28,0.13,3.41
8.31748104095459,-0.77,-2.93,-0.35,3.04
8.327954053878784,-0.88,-2.63,-0.75,2.87
8.336313962936401,-1.09,-2.2,-0.81,2.58
8.349216222763062,-1.18,-1.65,-0.41,2.06
8.357973098754883,-0.95,-1.12,0.22,1.48
8.367311000823975,-0.55,-0.86,0.7,1.23
8.377949953079224,-0.24,-0.85,0.98,1.31
8.386226892471313,-0.3,-1.27,1.13,1.72
8.399341106414795,-0.64,-1.8,1.29,2.3
8.40802001953125,-1.07,-2.52,1.02,2.92
8.417526960372925,-1.25,-3.35,0.5,3.61
8.427930116653442,-1.26,-4.11,-0.07,4.29
8.436322927474976,-1.42,-4.5,-0.49,4.74
8.449105024337769,-1.85,-4.92,-0.93,5.33
8.45792007446289,-1.83,-5.48,-1.27,5.91
8.46741008758545,-1.16,-5.63,-1.57,5.95
8.477727174758911,-0.62,-5.5,-1.57,5.75
8.486237049102783,-0.01,-5.68,-1.16,5.79
8.499129056930542,0.44,-6.35,-0.71,6.4
8.507939100265503,0.24,-7.1,-0.3,7.11
8.517518043518066,0.33,-7.96,-0.39,7.97
8.528071165084839,0.81,-8.85,-1.04,8.94
8.536321878433228,1.38,-8.96,-1.45,9.18
8.548849105834961,2.39,-8.83,-1.67,9.29
8.558066129684448,3.68,-8.34,-2.24,9.38
8.567620992660522,4.29,-8.91,-2.84,10.28
8.577914953231812,4.67,-9.07,-3.44,10.76
8.586302995681763,4.59,-8.33,-3.49,10.13
8.598953008651733,5.38,-7.5,-3.38,9.82
8.608046054840088,7.81,-5.82,-3.16,10.23
8.617579221725464,9.97,-3.62,-2.3,10.85
8.628093957901001,10.44,-2.08,-1.23,10.71
8.636393070220947,9.86,-1.34,-0.71,9.97
8.649039030075073,9.36,-0.63,-0.6,9.4
8.65809416770935,10.24,1.04,-0.22,10.29
8.667609930038452,11.64,3.25,0.46,12.09
8.67814302444458,11.74,5.68,0.84,13.06
8.686368227005005,10.8,7.23,0.45,13.0
8.699301958084106,9.36,8.72,-0.21,12.79
8.7082359790802,7.76,10.5,-1.2,13.11
8.717911005020142,6.46,11.88,-2.5,13.75
8.728662014007568,5.42,13.16,-3.37,14.62
8.736860036849976,3.72,14.43,-3.69,15.35
8.749280214309692,1.85,14.8,-3.59,15.34
8.75817322731018,1.02,14.63,-2.92,14.95
8.767880201339722,0.83,14.34,-1.51,14.44
8.778520107269287,0.65,13.88,0.32,13.89
8.786811113357544,0.41,12.8,2.07,12.97
8.799323081970215,0.25,11.37,3.41,11.87
8.808093070983887,-0.23,9.78,4.13,10.61
8.817753076553345,-0.85,8.62,4.53,9.77
8.828216075897217,-0.98,8.25,4.62,9.5
8.836420059204102,-0.5,8.24,4.0,9.17
8.849103212356567,-0.06,8.56,2.97,9.06
8.858155012130737,0.08,8.7,1.74,8.87
8.867747068405151,0.56,8.77,0.8,8.82
8.878079175949097,1.19,8.93,-0.07,9.0
8.886476993560791,1.35,8.47,-1.2,8.66
8.899163961410522,0.82,7.31,-1.93,7.6
8.908231019973755,0.53,5.84,-1.85,6.14
8.917728185653687,0.69,4.74,-1.02,4.89
8.928203105926514,1.23,4.13,-0.1,4.31
8.936332941055298,2.4,4.13,0.67,4.82
8.949320077896118,3.63,4.02,0.79,5.47
8.958224058151245,4.07,3.47,0.48,5.36
8.96780800819397,3.55,2.68,0.04,4.44
8.978207111358643,3.01,1.86,-0.29,3.55
8.986505031585693,3.12,1.24,-0.37,3.37
8.999377012252808,3.37,0.6,-0.26,3.43
9.008297204971313,3.21,-0.6,-0.3,3.27
9.017964124679565,2.76,-1.61,-0.21,3.2
9.028263092041016,2.5,-1.87,0.11,3.12
9.036624193191528,2.98,-1.76,0.27,3.47
9.049274206161499,4.03,-1.37,0.22,4.26
9.058357000350952,4.73,-0.67,0.12,4.77
9.067888021469116,4.67,-0.54,-0.17,4.7
9.078363180160522,3.7,-1.53,-0.83,4.08
9.08663821220398,2.16,-3.11,-1.35,4.01
9.09950304031372,0.91,-4.2,-1.52,4.55
9.108391046524048,0.32,-4.64,-1.39,4.85
9.117942094802856,0.43,-4.94,-0.94,5.04
9.128269910812378,1.21,-4.76,-0.58,4.94
9.136605978012085,2.0,-4.23,-0.05,4.67
9.1493079662323,2.27,-3.99,0.23,4.59
9.158338069915771,2.05,-4.1,0.19,4.58
9.16799521446228,0.99,-4.61,0.16,4.71
9.17836594581604,-0.02,-5.15,0.07,5.15
9.18656611442566,-0.06,-5.0,-0.01,5.0
9.19943904876709,0.27,-4.61,0.21,4.62
9.208324193954468,0.47,-4.57,0.43,4.61
9.217931032180786,0.78,-4.27,0.51,4.37
9.228462934494019,0.76,-3.75,0.66,3.88
9.236704111099243,0.34,-3.66,0.72,3.74
9.249392032623291,-0.05,-4.05,0.65,4.1
9.258248090744019,-0.21,-4.07,0.61,4.12
9.268069982528687,-0.08,-3.8,0.51,3.83
9.278353929519653,0.18,-3.55,0.39,3.57
9.286482095718384,0.38,-3.16,0.39,3.2
9.299553155899048,0.21,-2.8,0.34,2.82
9.308499097824097,-0.03,-2.59,0.08,2.59
9.318037033081055,-0.22,-2.57,-0.16,2.58
9.328459024429321,-0.24,-2.63,-0.22,2.65
9.336807012557983,-0.15,-2.56,-0.04,2.56
9.349487066268921,-0.12,-2.43,0.32,2.45
9.358471155166626,-0.28,-2.47,0.58,2.55
9.368016958236694,-0.38,-2.52,0.7,2.64
9.378506898880005,-0.31,-2.59,0.66,2.69
9.386686086654663,-0.29,-2.76,0.47,2.81
9.399537086486816,-0.52,-2.88,0.27,2.93
9.40851092338562,-0.83,-2.94,0.04,3.05
9.418101072311401,-0.93,-2.84,0.0,2.98
9.428524017333984,-1.06,-3.01,0.11,3.19
9.436853170394897,-1.09,-3.52,0.19,3.68
9.449517965316772,-1.07,-4.05,0.25,4.19
9.458380937576294,-1.18,-4.54,0.24,4.69
9.468137979507446,-1.35,-5.05,0.2,5.23
9.47848916053772,-1.22,-5.6,0.09,5.73
9.486779928207397,-1.43,-6.11,-0.04,6.27
9.499626874923706,-1.97,-6.48,-0.13,6.77
9.508611917495728,-2.6,-6.81,-0.15,7.29
9.51810622215271,-2.92,-7.13,-0.23,7.7
9.528515100479126,-2.44,-7.49,-0.41,7.88
9.53687596321106,-1.59,-7.74,-0.43,7.91
9.549434900283813,-1.24,-7.56,-0.31,7.66
9.558382034301758,-0.85,-7.26,-0.42,7.32
9.568181037902832,0.23,-7.32,-1.03,7.39
9.578485012054443,0.8,-7.29,-1.38,7.46
9.586834192276001,1.5,-7.17,-1.62,7.5
9.599725008010864,1.87,-7.66,-1.8,8.08
9.608509063720703,0.85,-8.47,-1.82,8.7
9.618212938308716,-0.13,-9.02,-2.01,9.24
9.628679990768433,-0.08,-9.22,-2.04,9.44
9.636944055557251,0.99,-8.83,-1.78,9.06
9.649901151657104,3.19,-7.16,-2.42,8.2
9.658618211746216,6.32,-5.51,-2.71,8.81
9.668255090713501,7.96,-4.65,-2.29,9.49
9.678602933883667,7.43,-3.75,-2.53,8.69
9.686892032623291,6.95,-3.54,-3.07,8.38
9.699712991714478,7.49,-3.19,-1.98,8.37
9.708609104156494,8.87,-1.71,-0.32,9.03
9.718177080154419,10.66,0.39,1.33,10.74
9.728699922561646,12.49,3.1,2.57,13.12
9.736937999725342,13.06,5.74,3.09,14.59
9.74959921836853,11.96,8.29,2.98,14.85
9.758955001831055,11.26,10.86,1.73,15.73
9.76881194114685,11.09,13.16,-0.54,17.21
9.779115915298462,9.35,14.79,-2.67,17.7
9.787452936172485,6.37,16.03,-4.91,17.93
9.800271034240723,4.23,16.31,-6.73,18.14
9.808757066726685,3.26,15.51,-6.3,17.05
9.81872296333313,2.9,13.72,-3.92,14.56
9.828680038452148,1.67,11.74,0.0,11.85
9.836990118026733,0.65,9.75,3.92,10.52
9.849605083465576,0.68,8.13,6.27,10.28
9.858639001846313,0.88,7.46,7.22,10.41
9.86833119392395,0.44,7.1,7.32,10.2
9.87855315208435,0.27,6.57,5.91,8.84
9.8870210647583,0.36,6.36,3.19,7.12
9.899815082550049,0.37,6.51,0.69,6.55
9.908915042877197,0.35,6.64,-1.08,6.73
9.918426036834717,0.2,7.18,-2.02,7.46
9.928668022155762,0.66,7.77,-2.71,8.25
9.937066078186035,1.3,8.23,-3.16,8.91
9.949978113174438,1.52,7.9,-3.12,8.62
9.958860158920288,1.31,6.92,-2.69,7.53
9.968476057052612,0.76,6.03,-1.5,6.26
9.978747129440308,0.94,5.65,-0.07,5.72
9.987099885940552,1.96,5.35,1.06,5.79
9.999961137771606,2.49,4.98,2.06,5.93
10.008940935134888,2.25,4.29,2.42,5.41
10.018476009368896,1.97,3.66,2.13,4.67
10.028815031051636,2.2,3.69,1.81,4.66
10.037203073501587,2.83,3.38,1.47,4.64
10.049958944320679,3.43,2.7,1.06,4.49
10.058976888656616,3.11,2.02,0.99,3.83
10.068458080291748,2.55,1.11,1.07,2.97
10.078849077224731,2.33,0.63,1.14,2.66
10.087070226669312,2.75,0.78,1.04,3.04
10.099955081939697,3.6,0.76,1.01,3.81
10.108890056610107,3.81,0.3,0.79,3.9
10.118481874465942,3.27,-0.4,-0.21,3.3
10.128905057907104,2.53,-1.17,-1.41,3.12
10.13721489906311,2.05,-1.6,-1.81,3.16
10.149944067001343,1.75,-2.24,-1.67,3.29
10.158905029296875,1.46,-2.94,-1.26,3.51
10.16846489906311,0.96,-3.43,-0.86,3.66
10.178915023803711,0.92,-3.49,-0.27,3.61
10.187164068222046,1.18,-3.73,0.35,3.92
10.199951887130737,1.47,-4.16,0.56,4.44
10.20877194404602,1.6,-4.51,0.47,4.8
10.218461036682129,1.32,-4.88,0.16,5.05
10.229005098342896,0.84,-4.99,-0.16,5.06
10.23728609085083,0.49,-4.97,-0.2,4.99
10.25003695487976,0.43,-4.94,-0.16,4.96
10.258906126022339,0.67,-4.7,-0.08,4.74
10.26862120628357,0.93,-4.17,0.19,4.27
10.278892040252686,1.09,-3.98,0.4,4.14
10.287240028381348,1.03,-4.29,0.17,4.41
10.30003809928894,0.46,-4.97,-0.21,4.99
10.308881998062134,-0.07,-5.56,-0.47,5.58
10.318567991256714,-0.16,-5.79,-0.65,5.82
10.329094171524048,-0.23,-5.92,-0.76,5.97
10.337278127670288,-0.37,-5.88,-0.83,5.94
10.349829912185669,-0.23,-5.13,-0.83,5.2
10.359405994415283,0.17,-3.99,-0.64,4.04
10.36870002746582,0.53,-3.35,-0.63,3.44
10.382961988449097,0.77,-3.05,-0.9,3.27
10.387239217758179,0.75,-2.86,-1.11,3.15
10.40019702911377,0.74,-2.63,-1.03,2.91
10.40938115119934,0.52,-2.61,-0.56,2.71
10.418689966201782,0.21,-2.88,-0.08,2.88
10.432424068450928,-0.01,-3.14,0.17,3.14
10.4374680519104,-0.04,-3.08,0.26,3.09
10.45027208328247,-0.13,-2.99,0.31,3.0
10.45946717262268,-0.24,-3.18,0.3,3.2
10.469078063964844,-0.22,-3.54,-0.02,3.54
10.48313593864441,-0.43,-3.98,-0.08,4.0
10.487369060516357,-0.83,-4.36,-0.02,4.43
10.500102043151855,-1.07,-4.67,-0.15,4.79
10.509263038635254,-1.05,-5.01,-0.44,5.13
10.51886510848999,-0.94,-5.18,-0.71,5.31
10.532692193984985,-0.84,-5.1,-0.94,5.25
10.537477016448975,-0.65,-4.86,-1.11,5.02
10.55007004737854,-0.4,-5.01,-1.3,5.19
10.55942988395691,-0.3,-5.54,-1.71,5.8
10.56892704963684,-0.41,-6.06,-2.05,6.41
10.582698106765747,-0.56,-6.73,-2.16,7.09
10.587451219558716,-0.78,-7.5,-2.11,7.83
10.599994897842407,-0.85,-8.26,-2.11,8.56
10.609398126602173,-0.29,-9.2,-2.19,9.46
10.618851900100708,0.94,-10.15,-2.38,10.46
10.63260817527771,2.24,-10.46,-2.92,11.08
10.637437105178833,2.98,-10.97,-3.39,11.86
10.650221109390259,3.86,-11.9,-3.84,13.08
10.659444093704224,3.42,-12.13,-3.5,13.07
10.668881177902222,2.39,-11.74,-3.49,12.47
10.682626008987427,3.46,-11.02,-3.94,12.2
10.687441110610962,6.6,-9.52,-4.18,12.31
10.700308084487915,8.77,-7.48,-3.2,11.96
10.70954704284668,10.34,-5.15,-2.4,11.79
10.718834161758423,11.52,-2.97,-2.02,12.06
10.732599973678589,12.52,-0.71,-1.44,12.62
10.737534999847412,13.8,1.78,-0.58,13.92
10.750248193740845,15.14,4.33,1.05,15.78
10.75946593284607,15.23,7.36,3.35,17.24
10.769015073776245,14.07,10.45,4.24,18.03
10.782814025878906,12.99,12.77,2.68,18.41
10.787919044494629,11.86,14.91,-0.38,19.05
10.800878047943115,8.91,17.0,-2.67,19.37
10.809791088104248,5.68,18.3,-3.97,19.56
10.819247961044312,3.75,18.51,-4.16,19.33
10.832862138748169,2.71,17.68,-2.61,18.07
10.83796501159668,1.66,15.73,0.54,15.82
10.85072112083435,0.56,13.4,4.11,14.02
10.859641075134277,-0.21,11.35,6.82,13.24
10.868885040283203,-0.31,9.93,8.37,12.99
10.882705926895142,-0.28,8.92,8.56,12.36
10.887537002563477,-0.61,8.21,7.14,10.89
10.900281190872192,-0.65,7.79,4.57,9.05
10.909577131271362,-0.51,7.91,2.06,8.18
10.918881177902222,-0.11,8.44,0.19,8.44
10.932825088500977,0.16,8.6,-1.31,8.7
10.93749213218689,0.1,8.27,-2.55,8.65
10.95019793510437,-0.1,8.11,-2.96,8.63
10.959715127944946,0.04,7.8,-2.77,8.27
10.96886420249939,0.65,7.31,-2.19,7.65
10.982708215713501,1.36,7.03,-1.25,7.26
10.987459897994995,2.01,6.75,-0.44,7.05
11.0003821849823,2.21,6.27,-0.21,6.65
11.009886980056763,2.24,5.77,-0.1,6.19
11.019032001495361,2.16,5.08,0.53,5.54
11.032778978347778,2.1,4.31,1.38,4.98
11.037568092346191,2.42,3.87,2.1,5.02
11.0502290725708,3.04,3.69,2.62,5.45
11.059640169143677,3.67,3.65,2.76,5.86
11.068964004516602,4.06,3.73,2.25,5.95
11.082678079605103,4.36,3.44,1.36,5.71
11.087766885757446,4.24,2.85,0.4,5.12
11.100312948226929,3.89,2.17,-0.22,4.45
11.109802007675171,3.65,1.6,-0.23,3.99
11.119023084640503,3.63,0.85,-0.44,3.75
11.132771015167236,3.87,0.28,-0.65,3.93
11.137712001800537,4.12,0.38,-0.32,4.14
11.15045714378357,4.27,0.25,-0.08,4.27
11.15985107421875,3.97,-0.68,-0.11,4.02
11.169149160385132,3.09,-1.72,0.08,3.53
11.182617902755737,2.36,-2.75,-0.2,3.62
11.187596082687378,2.02,-3.35,-0.78,3.98
11.200531005859375,1.91,-3.64,-0.89,4.2
11.2098970413208,2.2,-3.8,-0.93,4.48
11.219175100326538,2.24,-4.19,-1.21,4.9
11.233132123947144,1.78,-5.01,-1.36,5.48
11.237743139266968,1.3,-5.71,-1.14,5.96
11.250509023666382,1.07,-6.14,-0.87,6.29
11.259744882583618,1.21,-6.37,-0.72,6.52
11.269115209579468,1.62,-6.25,-0.37,6.46
11.282755136489868,1.58,-5.72,-0.02,5.93
11.287706136703491,1.77,-4.76,0.52,5.1
11.300624132156372,2.26,-3.94,0.93,4.63
11.310036897659302,2.22,-3.73,0.65,4.38
11.319277048110962,1.52,-3.88,-0.1,4.16
11.332776069641113,0.98,-4.03,-0.54,4.18
11.337618112564087,0.85,-4.18,-0.54,4.29
11.350532054901123,0.78,-4.28,-0.47,4.37
11.359762907028198,0.67,-4.27,-0.53,4.35
11.369282960891724,0.52,-4.4,-0.67,4.48
11.382437944412231,0.57,-4.72,-0.84,4.82
11.387789964675903,0.49,-5.09,-0.95,5.2
11.400650024414062,0.12,-5.45,-0.87,5.52
11.409841060638428,0.06,-5.61,-0.83,5.67
11.419180154800415,0.34,-5.72,-0.79,5.78
11.432562112808228,0.24,-6.06,-0.7,6.1
11.437813997268677,0.07,-6.57,-0.84,6.62
11.450595140457153,-0.08,-7.28,-0.98,7.34
11.460002183914185,-0.44,-8.01,-1.16,8.1
11.469256162643433,-0.86,-8.37,-1.44,8.53
11.482430219650269,-0.95,-8.57,-1.84,8.81
11.487847089767456,-0.87,-8.92,-2.28,9.24
11.500732183456421,-0.93,-9.22,-2.52,9.6
11.509910106658936,-0.83,-9.33,-2.51,9.69
11.519236087799072,-0.74,-9.24,-2.33,9.55
11.532507181167603,-0.36,-9.14,-2.34,9.44
11.537968873977661,0.1,-8.98,-2.29,9.26
11.550617933273315,0.02,-8.88,-2.05,9.11
11.55994200706482,0.12,-8.74,-1.88,8.94
11.569308996200562,0.27,-7.88,-1.49,8.02
11.582382917404175,1.18,-6.33,-1.05,6.52
11.58792519569397,3.15,-4.97,-0.95,5.96
11.600762128829956,4.28,-4.69,-0.6,6.37
11.610056161880493,3.88,-4.77,0.19,6.15
11.619325876235962,2.71,-5.23,0.36,5.9
11.632495164871216,2.82,-5.6,-0.57,6.29
11.637985944747925,3.63,-4.95,-1.86,6.41
11.65070104598999,4.5,-3.31,-3.63,6.66
11.659954071044922,5.48,-1.82,-4.42,7.27
11.66936707496643,6.16,-1.26,-3.73,7.31
11.682369947433472,5.8,-1.79,-2.05,6.4
11.687924146652222,5.24,-2.31,-0.03,5.72
11.700714111328125,6.19,-1.98,1.02,6.57
11.710054159164429,7.91,-0.46,1.15,8.0
11.719407081604004,9.51,1.92,1.12,9.76
11.732376098632812,10.44,4.39,1.94,11.49
11.738031148910522,10.11,6.74,3.24,12.57
11.75070595741272,9.35,8.72,2.94,13.11
11.760308980941772,9.18,11.23,0.95,14.53
11.769956111907959,8.33,13.58,-1.56,16.0
11.782393217086792,6.52,14.89,-4.18,16.78
11.78847622871399,4.56,15.13,-5.81,16.83
11.801351070404053,3.17,14.77,-5.61,16.11
11.810301065444946,1.96,13.92,-3.45,14.47
11.819915056228638,1.34,12.57,-0.52,12.65
11.83226203918457,0.72,10.81,2.32,11.07
11.838139057159424,0.48,9.5,4.96,10.72
11.850764036178589,0.56,8.52,6.61,10.79
11.860142946243286,0.46,7.69,7.0,10.4
11.869457960128784,-0.03,6.73,6.54,9.38
11.882319211959839,-0.27,6.16,5.2,8.06
11.888070106506348,0.1,6.18,3.11,6.91
11.900722026824951,0.35,6.38,0.97,6.46
11.910133123397827,0.41,6.63,-0.79,6.68
11.919511079788208,0.57,7.12,-2.17,7.46
11.932400941848755,0.91,7.36,-3.0,7.99
11.938155889511108,1.2,6.94,-3.22,7.74
11.950875997543335,1.14,6.26,-2.82,6.95
11.960356950759888,1.03,5.59,-1.82,5.96
11.969527959823608,1.27,5.02,-0.38,5.19
11.98235011100769,1.72,4.4,0.94,4.81
11.988111019134521,2.06,3.73,1.91,4.66
12.000919103622437,2.22,3.26,2.43,4.63
12.010374069213867,2.45,2.94,2.37,4.5
12.019613981246948,2.88,2.77,2.18,4.55
12.032238006591797,3.22,2.74,2.03,4.69
12.038247108459473,3.1,2.34,1.38,4.12
12.050842046737671,2.7,1.64,0.64,3.22
12.060343980789185,2.52,1.32,0.45,2.88
12.069591999053955,2.89,1.07,0.47,3.11
12.08222508430481,3.23,0.91,0.49,3.39
12.088175058364868,3.24,0.77,0.69,3.4
12.100965023040771,3.03,0.13,0.86,3.15
12.11027216911316,2.54,-0.7,0.65,2.71
12.119563102722168,2.21,-1.13,0.08,2.48
12.132143020629883,2.17,-1.25,-0.61,2.57
12.138276100158691,2.3,-1.32,-0.77,2.76
12.150999069213867,2.33,-1.47,-0.62,2.82
12.160372972488403,2.14,-1.76,-0.41,2.8
12.169595956802368,1.85,-1.98,-0.26,2.72
12.182095050811768,1.65,-2.04,-0.39,2.65
12.188257932662964,1.73,-2.33,-0.66,2.97
12.200742959976196,1.73,-2.66,-0.76,3.26
12.210084199905396,1.73,-2.95,-0.74,3.49
12.219677209854126,1.69,-3.56,-0.5,3.97
12.232065916061401,1.46,-4.17,-0.38,4.43
12.238387107849121,1.24,-4.37,-0.3,4.55
12.250891923904419,1.11,-4.56,-0.33,4.7
12.260195016860962,1.11,-4.51,-0.48,4.66
12.269662141799927,1.06,-4.57,-0.64,4.73
12.282240152359009,1.05,-4.87,-0.87,5.05
12.28829312324524,0.83,-5.29,-0.82,5.41
12.30107307434082,0.28,-5.53,-0.56,5.56
12.310360193252563,-0.15,-5.31,-0.26,5.31
12.319621086120605,0.14,-4.72,-0.19,4.72
12.332098007202148,0.56,-4.39,-0.47,4.45
12.338411092758179,0.72,-4.01,-0.67,4.12
12.351099014282227,0.71,-3.74,-0.53,3.84
12.36047101020813,0.45,-3.56,-0.43,3.61
12.369781017303467,0.31,-3.32,-0.53,3.37
12.381868124008179,0.26,-3.37,-0.41,3.4
12.388362169265747,0.22,-3.29,-0.14,3.3
12.401386022567749,0.09,-3.26,-0.02,3.26
12.410576105117798,0.05,-3.39,-0.08,3.39
12.419780969619751,-0.08,-3.71,-0.21,3.71
12.432053089141846,-0.35,-4.09,-0.32,4.11
12.438420057296753,-0.4,-4.21,-0.57,4.26
12.450934171676636,-0.33,-4.21,-0.9,4.31
12.460711002349854,-0.29,-4.42,-0.96,4.53
12.469888925552368,-0.34,-4.71,-0.72,4.77
12.482264041900635,-0.3,-4.89,-0.44,4.91
12.488542079925537,-0.24,-4.99,-0.36,5.0
12.501272916793823,-0.09,-5.03,-0.44,5.05
12.5103440284729,-0.09,-4.93,-0.57,4.96
12.519788026809692,-0.32,-4.75,-0.71,4.81
12.531735181808472,-0.35,-4.73,-0.84,4.81
12.538461923599243,-0.34,-4.99,-1.03,5.1
12.551066160202026,-0.51,-5.38,-1.3,5.55
12.560516119003296,-0.77,-5.85,-1.65,6.12
12.56981110572815,-1.1,-6.21,-2.16,6.66
12.581967115402222,-1.29,-6.23,-2.58,6.86
12.5884530544281,-1.12,-6.35,-2.53,6.92
12.601279973983765,-0.66,-6.46,-2.33,6.89
12.610588073730469,-0.61,-6.73,-1.88,7.01
12.619855165481567,-0.59,-7.35,-1.48,7.52
12.6317720413208,-0.77,-7.8,-1.07,7.91
12.638540983200073,-0.38,-7.7,-0.49,7.72
12.651347875595093,0.55,-6.71,-0.82,6.78
12.660607099533081,1.93,-5.32,-2.14,6.05
12.66989016532898,2.73,-4.51,-2.51,5.83
12.681798219680786,2.88,-4.27,-1.96,5.51
12.688531160354614,2.27,-4.66,-1.3,5.34
12.701411008834839,2.46,-5.15,-0.67,5.74
12.710633993148804,4.28,-4.94,-0.26,6.54
12.71984314918518,6.72,-3.76,0.1,7.7
12.73169493675232,7.79,-3.11,0.47,8.4
12.738579988479614,9.07,-1.58,0.31,9.21
12.751289129257202,10.56,0.65,0.69,10.6
12.760731935501099,10.6,2.15,1.62,10.93
12.769984006881714,9.76,3.18,0.99,10.31
12.78185510635376,9.38,4.59,-0.24,10.44
12.788558006286621,9.47,6.45,-1.3,11.53
12.801354169845581,9.72,8.17,-2.68,12.97
12.810599088668823,9.51,10.48,-3.66,14.61
12.82029414176941,8.74,12.75,-4.6,16.12
12.831729173660278,7.12,13.9,-5.23,16.46
12.83895993232727,5.76,14.31,-5.47,16.36
12.851901054382324,4.84,13.52,-4.6,15.07
12.860596895217896,3.66,11.75,-2.36,12.53
12.869884014129639,2.2,9.62,0.72,9.89
12.881653070449829,1.46,7.81,3.52,8.69
12.888588190078735,1.79,6.84,5.79,9.13
12.901321172714233,2.21,6.3,7.18,9.8
12.910709142684937,2.18,5.81,7.27,9.55
12.920108079910278,1.9,5.53,6.17,8.5
12.931802034378052,1.69,5.3,4.38,7.08
12.938760995864868,1.79,5.21,2.32,5.97
12.951491117477417,1.69,5.42,0.5,5.69
12.960787057876587,1.5,5.67,-0.83,5.92
12.97008490562439,1.36,5.71,-1.78,6.13
12.981597185134888,1.09,5.39,-2.31,5.96
12.988706111907959,0.64,4.87,-2.1,5.34
13.001571893692017,0.26,4.46,-1.39,4.67
13.01087999343872,0.61,4.66,-0.55,4.73
13.020052194595337,1.22,4.73,0.19,4.88
13.031549215316772,1.4,4.47,0.57,4.71
13.038767099380493,1.22,4.12,0.49,4.32
13.051460981369019,1.47,4.38,0.53,4.65
13.06095814704895,2.02,4.66,0.76,5.13
13.070175886154175,2.5,4.45,0.79,5.16
13.081606149673462,2.12,3.51,0.87,4.19
13.088770151138306,1.19,2.34,1.0,2.8
13.101826906204224,0.29,1.15,1.0,1.55
13.110774993896484,0.01,0.31,0.88,0.93
13.1199791431427,0.51,0.45,0.73,0.99
13.131563901901245,1.26,0.64,0.72,1.58
13.138737916946411,1.22,0.45,0.79,1.52
13.151556015014648,0.79,0.56,0.63,1.15
13.161207914352417,0.78,1.16,0.18,1.4
13.170422077178955,1.01,1.27,-0.62,1.73
13.181796073913574,0.82,0.64,-1.84,2.11
13.18883490562439,0.12,-0.43,-2.68,2.71
13.201807022094727,-0.49,-1.51,-2.79,3.21
13.211226224899292,-0.58,-2.51,-2.44,3.54
13.220214128494263,-0.36,-3.2,-1.85,3.71
13.231535196304321,-0.02,-3.12,-1.16,3.32
13.238888025283813,0.36,-2.85,-0.52,2.91
13.251495122909546,0.72,-3.31,-0.08,3.38
13.260915040969849,0.64,-4.1,0.12,4.15
13.270307064056396,0.27,-4.65,0.36,4.67
13.281963109970093,-0.01,-4.69,0.51,4.71
13.28887391090393,0.41,-4.34,0.41,4.37
13.301766157150269,1.07,-4.42,0.18,4.55
13.31104588508606,1.51,-4.35,0.14,4.6
13.320198059082031,1.07,-4.04,0.36,4.19
13.33147120475769,0.3,-4.24,0.29,4.26
13.338935136795044,-0.01,-4.33,0.23,4.33
13.351667165756226,-0.05,-4.35,0.24,4.35
13.361072063446045,-0.12,-4.49,0.0,4.49
13.370332956314087,-0.1,-4.34,-0.07,4.34
13.38142204284668,0.05,-4.13,0.32,4.14
13.3888099193573,0.04,-4.02,0.72,4.08
13.401733160018921,-0.01,-3.71,0.96,3.83
13.410956144332886,0.2,-3.58,1.15,3.76
13.420248031616211,0.21,-3.73,1.4,3.98
13.431444883346558,-0.15,-3.8,1.78,4.19
13.438889026641846,-0.72,-4.02,2.16,4.61
13.451637029647827,-0.89,-4.09,2.32,4.78
13.461158037185669,-0.79,-4.14,2.02,4.67
13.470340967178345,-0.82,-4.06,1.45,4.38
13.481410026550293,-1.03,-3.72,0.66,3.91
13.489015102386475,-1.24,-3.85,-0.15,4.04
13.501818895339966,-1.68,-4.41,-0.59,4.75
13.51092004776001,-2.23,-4.78,-0.82,5.33
13.520474195480347,-2.66,-5.24,-1.16,5.98
13.531451940536499,-2.35,-5.78,-1.31,6.37
13.539035081863403,-1.78,-6.0,-1.06,6.34
13.551902055740356,-1.35,-6.24,-0.6,6.41
13.561259984970093,-0.92,-7.1,-0.41,7.17
13.570358037948608,-0.46,-8.32,-0.38,8.34
13.581580877304077,-0.19,-9.91,-0.63,9.93
13.589075088500977,-0.08,-12.15,-1.29,12.21
13.601874113082886,0.0,-14.21,-1.83,14.32
13.610958099365234,-0.82,-15.72,-1.78,15.84
13.620429039001465,-1.43,-16.4,-2.01,16.58
13.631169080734253,-0.55,-16.44,-2.97,16.71
13.639124155044556,1.8,-15.74,-3.84,16.3
13.651836156845093,4.12,-14.0,-4.41,15.24
13.660813093185425,6.52,-11.56,-5.32,14.29
13.670496225357056,9.77,-8.21,-5.56,13.92
13.681189060211182,12.05,-5.42,-4.66,14.01
13.689100980758667,12.14,-2.74,-4.37,13.19
13.702017068862915,11.98,-0.74,-4.06,12.67
13.710962057113647,13.34,0.54,-2.19,13.52
13.720442056655884,15.43,2.19,1.6,15.66
13.731466054916382,16.77,4.57,5.7,18.29
13.739285230636597,17.31,7.6,6.98,20.15
13.752553224563599,15.57,10.69,5.9,19.78
13.760926961898804,12.24,12.93,2.62,17.99
13.771127939224243,9.91,14.03,-2.62,17.37
13.781129121780396,7.07,15.66,-7.24,18.64
13.790129899978638,3.71,16.89,-9.94,19.94
13.802456140518188,2.56,17.09,-10.87,20.41
13.810725927352905,2.19,16.26,-8.88,18.65
13.820955991744995,1.31,14.32,-4.05,14.93
13.831184148788452,0.17,11.75,2.3,11.97
13.839226961135864,0.19,9.52,7.42,12.07
13.851977109909058,1.35,8.16,10.48,13.35
13.860643148422241,1.01,7.29,11.34,13.51
13.870517015457153,-0.78,6.53,10.37,12.27
13.881067991256714,-1.12,5.54,7.15,9.11
13.889175176620483,0.05,5.52,2.95,6.25
13.901873111724854,-0.06,5.79,-0.02,5.79
13.910878896713257,-0.65,5.8,-2.24,6.25
13.920591115951538,-0.41,6.32,-3.21,7.1
13.931264162063599,0.47,6.77,-3.28,7.53
13.93930697441101,0.88,6.54,-2.99,7.24
13.952024221420288,0.68,6.05,-2.24,6.48
13.960939168930054,0.48,5.84,-1.16,5.97
13.970659971237183,0.85,5.97,-0.31,6.03
13.981154203414917,1.67,6.14,0.33,6.37
13.98921513557434,2.15,5.86,0.86,6.3
14.002098083496094,2.09,5.23,1.13,5.74
14.011215925216675,2.07,4.74,0.97,5.26
14.020790100097656,2.94,5.11,0.99,5.97
14.031146049499512,4.29,5.77,1.55,7.35
14.039722204208374,4.77,5.24,1.49,7.24
14.051951169967651,4.11,3.55,1.12,5.54
14.061050176620483,3.0,2.39,1.16,4.0
14.07063603401184,3.31,2.38,1.27,4.27
14.081047058105469,4.49,2.43,1.18,5.23
14.089663028717041,5.44,2.29,1.17,6.01
14.102049112319946,5.35,1.81,1.38,5.81
14.110953092575073,4.75,1.11,0.98,4.97
14.120618104934692,4.88,1.69,0.03,5.16
14.13098692893982,5.34,1.93,-0.94,5.75
14.139750003814697,5.15,0.32,-1.65,5.41
14.152050018310547,3.8,-1.8,-1.64,4.51
14.161076068878174,2.64,-3.58,-1.11,4.58
14.170841932296753,2.14,-5.0,-0.26,5.44
14.181063890457153,2.13,-5.8,0.65,6.21
14.18967890739441,2.42,-5.86,1.22,6.45
14.201955080032349,2.44,-5.45,1.22,6.09
14.211026906967163,2.48,-5.02,0.77,5.65
14.220733880996704,2.74,-4.91,0.05,5.62
14.230954885482788,2.18,-5.24,-0.48,5.69
14.239792108535767,1.17,-5.44,-0.68,5.6
14.252204179763794,0.29,-5.34,-0.57,5.37
14.261301040649414,-0.06,-5.27,-0.34,5.28
14.270787000656128,0.15,-4.87,-0.15,4.87
14.281102895736694,0.42,-4.1,-0.06,4.12
14.289768934249878,0.46,-3.74,0.02,3.76
14.302368879318237,0.55,-3.66,-0.02,3.7
14.311239004135132,0.53,-3.36,-0.1,3.4
14.320838212966919,0.57,-3.41,-0.17,3.46
14.331111192703247,0.72,-3.43,-0.25,3.51
14.339888095855713,0.54,-2.73,-0.01,2.78
14.352174997329712,0.01,-2.49,0.26,2.5
14.361246109008789,-0.43,-3.11,-0.16,3.14
14.370795011520386,-0.26,-3.05,-0.74,3.14
14.380735158920288,-0.23,-2.75,-0.87,2.89
14.389743089675903,-0.3,-3.41,-0.93,3.54
14.402101993560791,-0.31,-4.3,-0.93,4.41
14.41125202178955,-0.29,-4.95,-0.67,5.0
14.420827150344849,-0.13,-5.34,-0.27,5.34
14.430938005447388,-0.09,-5.55,0.03,5.55
14.440025091171265,0.07,-5.86,0.0,5.86
14.452202081680298,0.2,-6.6,-0.16,6.6
14.46135687828064,0.08,-7.55,-0.34,7.55
14.4708890914917,-0.49,-8.17,-0.54,8.2
14.480775117874146,-0.91,-8.29,-0.75,8.37
14.489796876907349,-0.46,-8.09,-1.13,8.18
14.502238988876343,0.14,-7.59,-1.48,7.73
14.511301040649414,0.73,-7.17,-1.9,7.45
14.521004915237427,0.92,-7.15,-2.33,7.57
14.53090214729309,0.25,-7.43,-2.35,7.79
14.540103197097778,-0.54,-8.17,-1.91,8.4
14.552319049835205,-0.22,-8.87,-1.54,9.0
14.561484098434448,0.44,-8.77,-1.15,8.85
14.570904016494751,0.76,-8.14,-0.51,8.19
14.580801010131836,1.11,-7.62,0.08,7.7
14.589930057525635,1.74,-6.64,0.02,6.86
14.60240387916565,2.62,-6.08,0.19,6.62
14.611384153366089,2.89,-5.77,0.62,6.48
14.621044874191284,2.12,-5.25,0.44,5.67
14.630786180496216,1.56,-5.2,-0.32,5.43
14.64009404182434,2.63,-5.22,-1.16,5.95
14.652276039123535,3.88,-4.1,-1.93,5.96
14.661339044570923,4.56,-3.03,-1.84,5.77
14.670958042144775,5.78,-2.54,-0.73,6.35
14.680890083312988,6.65,-2.6,1.41,7.27
14.689986944198608,6.51,-2.15,2.75,7.38
14.70244812965393,6.68,-0.65,2.37,7.11
14.711289167404175,7.7,0.93,-0.29,7.76
14.721065998077393,9.64,3.78,-1.91,10.52
14.730930089950562,10.49,6.03,-0.65,12.11
14.740141153335571,10.22,7.68,1.6,12.88
14.75236701965332,9.6,9.36,2.56,13.65
14.76144289970398,9.25,10.44,1.06,13.98
14.771491050720215,7.84,11.34,-2.16,13.95
14.781171083450317,5.27,12.25,-5.2,14.31
14.790517091751099,3.8,13.15,-6.65,15.21
14.80292296409607,3.27,14.45,-6.61,16.22
14.811497926712036,2.64,14.87,-5.63,16.11
14.821516036987305,1.94,13.73,-3.38,14.27
14.830980062484741,0.7,11.89,0.64,11.92
14.840121030807495,0.46,9.76,4.0,10.55
14.852480173110962,0.88,8.14,5.95,10.12
14.861301183700562,0.7,6.74,6.59,9.45
14.871047019958496,0.27,5.61,5.82,8.08
14.881044149398804,0.15,5.06,3.99,6.44
14.890051126480103,0.22,4.82,1.6,5.08
14.902580976486206,0.08,4.38,-0.35,4.39
14.911673069000244,-0.2,4.22,-1.5,4.48
14.921175003051758,-0.35,4.09,-2.33,4.72
14.930853128433228,-0.29,4.05,-3.13,5.12
14.940325021743774,-0.32,4.4,-3.45,5.6
14.952951192855835,-0.05,4.77,-3.22,5.75
14.961822032928467,0.5,4.94,-2.53,5.57
14.971052885055542,0.74,5.0,-1.4,5.24
14.98149299621582,0.71,5.18,-0.29,5.23
14.990042924880981,0.96,5.49,0.61,5.6
15.002525091171265,1.79,6.12,1.16,6.48
15.011743068695068,3.21,6.44,0.93,7.25
15.021322011947632,3.47,6.42,0.71,7.33
15.03096318244934,2.77,6.48,0.59,7.07
15.040210008621216,2.79,6.29,0.31,6.88
15.052529096603394,3.21,5.91,0.23,6.72
15.061525106430054,3.95,5.91,0.58,7.13
15.071394205093384,4.87,5.72,1.12,7.59
15.081104040145874,5.31,4.58,1.63,7.19
15.090274095535278,4.57,3.2,1.81,5.86
15.102608919143677,3.51,2.13,1.56,4.39
15.111932039260864,3.26,1.2,0.97,3.6
15.12122106552124,3.28,0.34,0.3,3.31
15.131137132644653,3.39,-0.18,-0.05,3.39
15.140296220779419,3.59,-0.71,0.22,3.66
15.152601957321167,3.27,-1.9,0.5,3.81
15.161659955978394,2.47,-3.31,0.28,4.13
15.171263933181763,1.74,-4.23,-0.15,4.57
15.18118691444397,1.38,-4.87,-0.45,5.08
15.190274000167847,1.16,-5.49,-0.85,5.67
15.20278811454773,1.11,-6.02,-0.96,6.19
15.211735963821411,1.51,-6.19,-0.91,6.43
15.221367120742798,1.59,-6.52,-0.68,6.74
15.231221914291382,1.32,-6.95,-0.55,7.09
15.240431070327759,1.09,-6.83,-0.34,6.92
15.252726078033447,0.94,-5.93,-0.18,6.0
15.26195502281189,0.74,-5.66,-0.43,5.72
15.271443128585815,0.54,-6.16,-0.72,6.22
15.281205892562866,0.33,-6.42,-0.73,6.46
15.29023814201355,0.15,-6.12,-0.54,6.14
15.302853107452393,0.2,-5.48,-0.25,5.48
15.311826944351196,0.43,-5.03,-0.01,5.04
15.321433067321777,0.7,-4.53,0.12,4.58
15.331228017807007,0.91,-3.66,0.3,3.78
15.340522050857544,1.16,-2.96,0.65,3.24
15.352670907974243,1.55,-2.85,0.59,3.29
15.36191201210022,1.58,-3.04,0.13,3.42
15.371451139450073,1.15,-3.38,-0.16,3.57
15.381314039230347,0.48,-3.85,-0.17,3.88
15.390491008758545,-0.21,-4.21,-0.24,4.22
15.402886152267456,-0.6,-4.31,-0.53,4.38
15.411758184432983,-0.45,-4.37,-0.91,4.48
15.421345949172974,-0.07,-4.48,-1.1,4.61
15.431324005126953,0.0,-4.84,-1.13,4.97
15.440461874008179,-0.15,-5.38,-1.17,5.5
15.452827215194702,-0.37,-5.95,-1.24,6.08
15.461879968643188,-0.3,-6.34,-1.17,6.45
15.476638078689575,0.17,-6.67,-1.07,6.75
15.481405973434448,0.63,-7.06,-1.16,7.18
15.490410089492798,0.6,-7.45,-1.05,7.54
15.502833127975464,0.31,-7.97,-0.74,8.01
15.511932134628296,0.22,-8.55,-0.41,8.56
15.526641130447388,0.29,-9.32,-0.61,9.34
15.531448125839233,0.93,-10.44,-0.84,10.51
15.540590047836304,1.02,-11.36,-0.69,11.42
15.55278992652893,0.3,-12.42,-0.75,12.44
15.56187105178833,0.19,-13.71,-1.21,13.76
15.576405048370361,0.41,-14.45,-1.58,14.54
15.581492185592651,0.61,-14.31,-1.94,14.45
15.590408086776733,2.17,-12.9,-2.22,13.26
15.602982997894287,4.15,-11.05,-2.47,12.05
15.611961126327515,5.38,-9.44,-3.16,11.31
15.626765012741089,5.94,-7.75,-3.85,10.49
15.631419897079468,6.59,-5.58,-4.36,9.67
15.640373945236206,8.1,-3.45,-4.59,9.92
15.652849912643433,9.69,-1.81,-4.48,10.82
15.661845922470093,10.71,-0.43,-3.16,11.17
15.676707029342651,10.51,0.53,-0.57,10.53
15.681462049484253,11.69,2.95,2.05,12.22
15.690367937088013,13.02,6.18,4.25,15.02
15.702826023101807,13.84,9.98,5.77,18.01
15.711958169937134,13.86,13.67,6.65,20.57
15.727259874343872,12.58,16.13,5.4,21.15
15.731651067733765,9.95,17.34,1.27,20.03
15.74038290977478,6.73,18.29,-3.28,19.76
15.753175973892212,3.51,17.96,-6.52,19.42
15.762216091156006,1.79,16.7,-7.44,18.36
15.777549028396606,1.42,15.27,-5.79,16.39
15.78172516822815,0.85,13.74,-1.6,13.85
15.79044508934021,0.91,11.94,2.54,12.24
15.803049087524414,1.4,10.68,5.58,12.13
15.81188702583313,1.27,9.34,6.67,11.54
15.826848030090332,0.36,7.65,6.24,9.87
15.83156704902649,-0.71,6.32,4.95,8.05
15.840327978134155,-1.0,5.52,3.4,6.55
15.852906942367554,-0.58,5.31,2.12,5.74
15.862228155136108,-0.21,5.47,1.33,5.63
15.876983880996704,0.0,5.75,0.42,5.76
15.881647109985352,0.41,6.23,-0.51,6.26
15.890441179275513,0.72,6.75,-1.24,6.9
15.903081178665161,1.16,6.91,-1.77,7.22
15.912081003189087,1.02,6.79,-1.69,7.07
15.927006006240845,0.46,6.59,-1.21,6.71
15.931471109390259,0.25,6.39,-0.74,6.43
15.940466165542603,0.71,6.52,-0.44,6.57
15.953049898147583,1.82,6.82,-0.43,7.07
15.962192058563232,2.84,7.09,-0.31,7.64
15.976750135421753,3.54,7.09,-0.01,7.92
15.981698036193848,4.03,6.6,0.38,7.74
15.990374088287354,3.97,5.7,0.61,6.97
16.003226041793823,3.86,4.5,0.76,5.97
16.012128114700317,3.45,3.4,1.06,4.95
16.02722406387329,3.13,2.58,1.25,4.24
16.031657934188843,3.33,1.97,1.24,4.06
16.04043221473694,3.79,1.36,1.2,4.2
16.053084135055542,3.83,0.48,1.16,4.03
16.06213116645813,3.52,-0.25,0.84,3.62
16.076898097991943,3.42,-0.25,0.35,3.44
16.081748008728027,3.53,-0.36,-0.14,3.55
16.090625047683716,3.92,-0.4,-0.63,3.99
16.103312015533447,4.02,-0.26,-0.65,4.08
16.112492084503174,4.03,-0.6,-0.59,4.11
16.12750506401062,3.67,-1.19,-0.73,3.92
16.131643056869507,2.94,-1.34,-0.87,3.34
16.140517950057983,2.77,-1.36,-0.91,3.21
16.153300046920776,2.89,-1.99,-0.86,3.61
16.162118196487427,2.94,-3.01,-0.85,4.29
16.17708706855774,2.69,-3.59,-0.73,4.54
16.181804895401,2.26,-4.05,-0.32,4.64
16.190386056900024,1.93,-4.8,-0.27,5.18
16.203278064727783,2.06,-5.68,-0.53,6.06
16.212165117263794,2.17,-6.24,-0.79,6.65
16.2272789478302,1.98,-6.35,-0.64,6.68
16.231744050979614,1.65,-6.45,-0.28,6.66
16.240581035614014,1.62,-6.58,0.05,6.77
16.253223180770874,1.66,-6.51,0.45,6.73
16.26219916343689,1.51,-6.45,0.47,6.64
16.27703309059143,1.12,-6.39,0.15,6.48
16.28174901008606,0.31,-6.47,-0.34,6.48
16.290460109710693,-0.06,-6.54,-0.84,6.59
16.303290128707886,0.0,-6.34,-0.9,6.4
16.312443017959595,0.31,-6.05,-0.61,6.08
16.327821969985962,0.62,-5.56,-0.58,5.62
16.33180809020996,0.7,-5.31,-0.65,5.39
16.340648889541626,0.73,-5.55,-0.58,5.62
16.353260040283203,0.2,-5.75,-0.39,5.76
16.362212896347046,-0.56,-5.73,-0.37,5.76
16.377207040786743,-0.92,-5.89,-0.34,5.97
16.381736993789673,-0.87,-6.28,-0.69,6.37
16.39042592048645,-1.0,-6.7,-1.09,6.86
16.403274059295654,-1.1,-6.89,-1.27,7.09
16.412256956100464,-0.94,-6.75,-1.42,6.96
16.42737317085266,-0.65,-6.62,-1.55,6.83
16.43186902999878,-0.48,-6.48,-1.7,6.71
16.44064688682556,-0.63,-6.5,-1.78,6.76
16.4533212184906,-0.62,-6.79,-1.8,7.05
16.462361097335815,-0.68,-7.09,-1.82,7.35
16.477296113967896,-0.83,-7.38,-1.76,7.63
16.48171305656433,-0.57,-7.38,-1.9,7.64
16.49058699607849,-0.13,-7.08,-2.04,7.36
16.50345206260681,0.23,-6.79,-1.72,7.0
16.51240110397339,0.24,-6.83,-1.48,6.99
16.527334928512573,0.31,-7.3,-1.31,7.42
16.531867027282715,0.32,-7.59,-0.9,7.64
16.541066884994507,1.16,-7.22,-0.64,7.34
16.553434133529663,2.8,-6.78,0.23,7.33
16.562483072280884,4.0,-6.6,1.61,7.88
16.57752013206482,4.64,-6.16,2.27,8.03
16.582024097442627,3.29,-6.42,2.35,7.58
16.590751886367798,2.12,-7.34,1.44,7.77
16.603496074676514,3.02,-7.75,-0.35,8.32
16.61249613761902,5.76,-6.76,-2.06,9.11
16.62760090827942,7.92,-5.27,-3.17,10.02
16.631922960281372,8.29,-4.61,-4.03,10.3
16.64089798927307,8.7,-4.43,-4.07,10.57
16.65342402458191,10.55,-2.9,-3.53,11.49
16.662397146224976,12.3,-1.3,-2.22,12.56
16.6775381565094,13.57,0.64,-0.56,13.59
16.682071924209595,13.93,3.81,0.8,14.46
16.690722227096558,14.25,7.22,1.7,16.06
16.703598022460938,14.61,11.56,2.53,18.8
16.712420225143433,14.38,16.19,2.07,21.75
16.7278470993042,12.69,19.27,-1.01,23.09
16.732614994049072,10.03,21.07,-5.2,23.9
16.740601062774658,7.1,21.07,-7.55,23.48
16.753582000732422,3.73,18.81,-7.81,20.7
16.762607097625732,1.4,15.76,-6.39,17.06
16.778504133224487,0.88,13.06,-3.21,13.47
16.782446146011353,0.91,10.54,0.87,10.61
16.790764093399048,1.01,8.48,4.54,9.67
16.803636074066162,1.2,7.4,7.38,10.51
16.81266713142395,1.32,7.42,8.11,11.07
16.827909231185913,1.08,7.3,6.49,9.82
16.832014083862305,1.11,7.72,4.64,9.07
16.840780019760132,0.84,8.16,2.99,8.73
16.853581190109253,1.15,8.15,1.2,8.31
16.862478971481323,1.68,8.12,0.29,8.29
16.878093957901,2.36,8.17,0.33,8.51
16.88199210166931,3.02,8.2,0.42,8.74
16.89074397087097,3.61,7.96,0.21,8.74
16.903609037399292,3.73,7.27,0.07,8.17
16.91263222694397,4.02,6.32,-0.01,7.49
16.92787194252014,4.29,5.41,0.14,6.9
16.9319269657135,3.77,4.73,0.01,6.04
16.940916061401367,3.18,4.05,-0.17,5.15
16.953535079956055,3.07,3.22,0.08,4.44
16.96264100074768,3.06,2.29,0.48,3.85
16.977817058563232,2.81,1.26,0.58,3.13
16.98216700553894,2.37,0.47,0.47,2.46
16.990875005722046,1.97,-0.05,0.13,1.97
17.00394606590271,1.38,-0.93,-0.35,1.7
17.012572050094604,0.88,-1.96,-0.57,2.22
17.027759075164795,0.76,-2.6,0.0,2.7
17.032110929489136,0.73,-3.13,1.06,3.38
17.041020154953003,0.67,-3.72,1.44,4.04
17.05415415763855,0.65,-4.17,1.33,4.42
17.063113927841187,0.68,-4.36,1.16,4.56
17.078479051589966,1.08,-4.23,1.06,4.49
17.082452058792114,2.08,-3.86,1.14,4.53
17.09094214439392,2.77,-3.57,0.43,4.53
17.104137182235718,2.75,-3.75,-0.77,4.71
17.112804174423218,2.37,-4.28,-1.91,5.25
17.129106998443604,1.8,-4.82,-3.12,6.01
17.132858991622925,1.29,-5.07,-3.99,6.57
17.14106297492981,0.93,-5.09,-4.44,6.81
17.15403699874878,0.55,-4.89,-4.65,6.77
17.162779092788696,0.21,-4.67,-4.46,6.46
17.177977085113525,0.0,-4.5,-4.08,6.07
17.18236207962036,-0.08,-4.19,-3.96,5.76
17.191025972366333,0.3,-3.52,-3.52,4.98
17.204199075698853,1.06,-2.44,-2.84,3.89
17.212817907333374,1.04,-1.76,-2.87,3.52
17.228389978408813,0.09,-1.51,-2.85,3.22
17.232340097427368,-1.3,-1.59,-2.7,3.39
17.241273164749146,-2.21,-1.87,-2.87,4.07
17.254149198532104,-2.2,-2.24,-2.88,4.26
17.262748956680298,-1.95,-2.5,-2.14,3.82
17.278001070022583,-1.61,-2.48,-1.08,3.14
17.28229022026062,-1.03,-2.08,-0.98,2.51
17.291066884994507,-0.19,-1.59,-1.41,2.13
17.304270029067993,0.09,-1.2,-1.9,2.24
17.31297206878662,-0.24,-0.76,-2.27,2.4
17.328679084777832,-0.73,-0.23,-1.68,1.84
17.332646131515503,-0.93,0.17,-0.82,1.25
17.34115719795227,-0.99,0.48,-0.2,1.11
17.35420298576355,-0.85,0.83,0.0,1.18
17.36279010772705,-0.51,1.09,-0.27,1.23
17.378286123275757,-0.09,1.33,-0.65,1.48
17.3823459148407,0.09,1.67,-0.8,1.85
17.39114499092102,0.1,1.84,-0.99,2.09
17.404507875442505,-0.16,1.83,-1.36,2.28
17.413239002227783,-0.59,1.38,-1.33,2.0
17.428733110427856,-1.2,1.06,-1.16,1.97
17.432650089263916,-1.54,0.94,-0.93,2.02
17.441197156906128,-1.44,0.85,-0.92,1.9
17.454365968704224,-0.86,0.86,-1.36,1.82
17.462947130203247,-0.27,0.94,-1.51,1.79
17.478235960006714,-0.37,1.42,-1.19,1.88
17.48245406150818,-0.6,1.53,-0.94,1.89
17.491164922714233,-0.66,1.18,-1.06,1.71
17.504388093948364,-1.1,1.03,-1.54,2.15
17.512820959091187,-1.47,0.79,-1.64,2.33
17.52867817878723,-1.14,0.48,-1.05,1.62
17.533408880233765,0.04,-0.19,0.05,0.2
17.541277170181274,0.8,-0.45,0.36,0.98
17.554336071014404,-0.57,0.53,0.63,1.0
17.563003063201904,-1.03,0.51,0.68,1.33
17.578346967697144,-0.63,0.17,-0.22,0.68
17.58259415626526,-0.61,0.28,-0.5,0.83
17.591195106506348,-0.57,0.57,-0.27,0.85
17.60443091392517,-0.45,0.61,0.1,0.76
17.613089084625244,0.06,0.23,0.32,0.39
