time,ax,ay,az,atotal
0.014709949493408203,-0.04,-0.02,0.07,0.08
0.026568889617919922,0.03,-0.06,0.11,0.12
0.02743387222290039,0.06,0.0,0.23,0.23
0.03666281700134277,0.03,0.04,-0.13,0.13
0.04792976379394531,-0.04,0.0,0.11,0.11
0.056679725646972656,0.0,0.06,-0.12,0.13
0.07739591598510742,-0.01,0.03,0.03,0.04
0.07826089859008789,0.0,0.04,0.17,0.17
0.08687496185302734,-0.08,-0.03,-0.06,0.1
0.0982367992401123,-0.22,0.02,-0.1,0.24
0.10699701309204102,-0.16,0.02,0.01,0.16
0.12805986404418945,0.04,-0.02,-0.01,0.04
0.12892484664916992,0.02,-0.01,-0.03,0.03
0.13681983947753906,0.06,0.02,0.07,0.09
0.14813566207885742,0.06,0.1,0.13,0.17
0.1569058895111084,0.05,0.03,0.05,0.07
0.1784529685974121,0.08,0.02,0.02,0.08
0.17925381660461426,-0.03,0.01,0.02,0.03
0.18695878982543945,-0.09,-0.06,0.03,0.11
0.1982426643371582,-0.15,0.04,-0.1,0.18
0.20714473724365234,-0.17,-0.01,-0.01,0.17
0.23046088218688965,-0.09,0.0,0.1,0.13
0.2313699722290039,-0.12,0.04,-0.02,0.12
0.23694276809692383,-0.1,0.03,0.08,0.13
0.2483997344970703,-0.13,0.03,0.09,0.16
0.25715088844299316,-0.11,0.02,0.08,0.13
0.2790827751159668,-0.18,0.03,-0.01,0.18
0.2800307273864746,-0.31,0.04,-0.19,0.36
0.2871978282928467,-0.18,-0.04,-0.09,0.2
0.29858875274658203,-0.16,0.01,-0.09,0.18
0.3078937530517578,-0.18,0.01,0.03,0.18
0.32878589630126953,-0.12,-0.03,-0.1,0.15
0.3297438621520996,-0.08,-0.02,0.09,0.12
0.3371257781982422,-0.1,0.02,0.05,0.11
0.34885692596435547,-0.17,0.04,-0.07,0.18
0.3574638366699219,-0.11,-0.02,0.01,0.11
0.37958288192749023,-0.08,0.02,-0.06,0.1
0.3804769515991211,-0.14,0.02,-0.16,0.21
0.38734889030456543,-0.15,0.02,-0.07,0.16
0.3989088535308838,-0.11,0.05,0.04,0.12
0.40770483016967773,-0.17,0.12,-0.06,0.21
0.43015193939208984,0.0,0.28,0.14,0.31
0.43109798431396484,0.02,-0.24,0.03,0.24
0.43747568130493164,0.0,0.0,-0.15,0.15
0.44899988174438477,0.02,0.0,0.13,0.13
0.4575378894805908,0.06,-0.09,0.05,0.11
0.48029279708862305,0.07,-0.06,0.02,0.09
0.4812328815460205,0.05,-0.08,0.05,0.1
0.48758387565612793,0.09,-0.06,-0.29,0.3
0.4990808963775635,0.43,-0.04,-0.55,0.69
0.5076308250427246,0.59,0.11,-0.07,0.6
0.5300416946411133,0.02,0.19,0.76,0.78
0.5309939384460449,-0.08,-0.08,0.83,0.83
0.5374617576599121,-0.02,-0.2,0.38,0.42
0.5489816665649414,-0.02,-0.14,0.35,0.37
0.5577139854431152,-0.07,-0.05,0.51,0.51
0.5796380043029785,-0.04,0.11,-0.05,0.12
0.5805878639221191,0.13,0.14,-0.41,0.45
0.5877468585968018,0.14,-0.16,-0.21,0.29
0.5992889404296875,0.06,-0.06,-0.25,0.26
0.6078047752380371,-0.07,0.03,0.02,0.07
0.6284768581390381,-0.06,0.0,-0.1,0.11
0.6293787956237793,0.01,-0.06,0.0,0.06
0.6377496719360352,0.42,-0.05,0.13,0.44
0.649174690246582,-0.14,0.04,0.23,0.27
0.6575527191162109,-0.39,0.04,0.19,0.43
0.6783909797668457,0.05,0.05,0.13,0.14
0.6792848110198975,0.04,0.06,0.08,0.1
0.6876258850097656,0.01,0.09,0.1,0.13
0.6988527774810791,0.01,0.04,-0.01,0.04
0.7078399658203125,-0.02,-0.02,-0.06,0.06
0.7281990051269531,0.0,0.02,0.02,0.02
0.7290248870849609,0.01,0.02,0.04,0.04
0.7378427982330322,0.08,-0.02,0.11,0.13
0.7489798069000244,0.11,0.01,0.27,0.29
0.7577576637268066,0.26,-0.11,0.03,0.28
0.7785377502441406,0.28,-0.03,-0.15,0.31
0.779437780380249,0.59,0.07,0.12,0.6
0.7880117893218994,0.21,0.14,0.07,0.26
0.7991867065429688,-0.16,0.04,-0.04,0.16
0.8081579208374023,-0.15,0.12,0.34,0.39
0.8293747901916504,-0.97,0.23,-0.19,1.01
0.8303647041320801,-0.67,-0.44,0.01,0.8
0.8378908634185791,-0.31,0.13,0.39,0.51
0.8494067192077637,-0.96,0.53,-0.74,1.32
0.858069896697998,-0.54,-0.09,-0.36,0.65
0.8796508312225342,-0.05,-0.13,0.16,0.21
0.8806209564208984,-0.18,-0.04,0.05,0.19
0.8880767822265625,-0.29,0.03,0.41,0.5
0.8995819091796875,-0.13,-0.1,0.09,0.18
0.9081177711486816,-0.46,-0.1,0.02,0.47
0.9297809600830078,-0.55,0.14,0.37,0.67
0.9307668209075928,0.23,0.02,0.28,0.36
0.9380018711090088,0.46,-0.15,0.26,0.54
0.9495949745178223,0.2,-0.03,0.27,0.33
0.9581317901611328,0.09,0.04,0.04,0.1
0.9801077842712402,0.16,-0.12,-0.14,0.24
0.9810798168182373,0.18,-0.1,0.06,0.21
0.9882316589355469,0.52,-0.06,0.19,0.55
0.9995508193969727,0.84,-0.05,0.07,0.84
1.0084147453308105,0.58,-0.19,0.28,0.67
1.0296947956085205,0.26,-0.06,0.24,0.35
1.030667781829834,0.21,0.06,0.09,0.23
1.0382568836212158,0.37,-0.12,0.25,0.46
1.0508136749267578,0.43,-0.29,0.36,0.63
1.058290958404541,0.38,-0.68,0.46,0.9
1.0794057846069336,0.06,0.75,-0.47,0.88
1.0803847312927246,-0.89,0.47,-1.04,1.44
1.0883708000183105,-0.26,-0.16,0.05,0.3
1.0996737480163574,0.48,-0.13,-0.2,0.53
1.108266830444336,-0.12,0.01,-0.16,0.2
1.1293268203735352,-0.54,0.12,0.04,0.55
1.130279779434204,-0.68,0.13,0.2,0.72
1.1383228302001953,-0.21,0.32,0.31,0.49
1.1495938301086426,-0.92,-0.08,0.22,0.94
1.1582679748535156,-1.09,0.06,0.13,1.09
1.1790378093719482,-0.73,0.03,0.06,0.73
1.1799349784851074,-0.16,0.26,0.02,0.3
1.188450813293457,-0.91,0.18,-0.06,0.92
1.199657917022705,-1.81,-0.33,0.01,1.83
1.2086098194122314,-1.28,-0.49,0.71,1.54
1.2291836738586426,-0.25,1.56,-1.02,1.88
1.2301228046417236,-0.6,0.01,-0.82,1.01
1.238327980041504,-0.41,-0.11,0.38,0.56
1.249800682067871,-0.54,-0.03,-0.02,0.54
1.2585349082946777,-0.93,-1.37,0.14,1.66
1.2786328792572021,0.11,-0.3,0.57,0.65
1.2795310020446777,0.95,1.0,-0.21,1.39
1.2885968685150146,0.22,-0.16,-0.14,0.3
1.2997918128967285,-0.23,-0.13,0.43,0.5
1.3086299896240234,0.35,-0.14,0.33,0.5
1.328871726989746,-0.55,-1.59,0.5,1.75
1.3297767639160156,-0.04,-0.99,0.98,1.39
1.3386297225952148,0.86,1.35,-0.17,1.6
1.3501677513122559,0.24,0.21,0.13,0.34
1.3587088584899902,-1.04,-0.7,0.84,1.5
1.3785409927368164,-0.37,-0.43,0.78,0.96
1.3794357776641846,0.28,0.32,0.02,0.42
1.3886098861694336,-0.3,-0.02,-0.12,0.32
1.3998007774353027,-0.37,-0.14,0.11,0.41
1.4086809158325195,0.11,-0.1,0.36,0.38
1.428731918334961,0.1,0.04,0.01,0.1
1.4296259880065918,-0.38,0.26,-0.32,0.56
1.438666820526123,-0.45,0.35,-0.8,0.98
1.4500958919525146,-0.18,-0.04,-0.98,0.99
1.4588508605957031,0.33,-0.28,-0.79,0.9
1.479463815689087,0.57,-0.04,-0.91,1.07
1.4803907871246338,0.45,0.03,-0.3,0.54
1.488783836364746,0.33,0.03,-0.38,0.5
1.5000288486480713,0.06,0.29,-0.43,0.52
1.508908748626709,-0.09,0.09,-0.09,0.15
1.5293447971343994,0.04,-0.42,-0.44,0.6
1.5302457809448242,0.48,-0.03,-0.38,0.61
1.5388789176940918,0.76,0.44,-0.79,1.18
1.5502476692199707,0.24,-0.27,-0.47,0.59
1.559039831161499,0.39,-0.1,-0.14,0.42
1.5795338153839111,0.59,-0.08,0.03,0.59
1.5804297924041748,0.42,-0.09,0.06,0.43
1.5889828205108643,0.31,-0.14,0.34,0.48
1.6001486778259277,0.27,-0.16,0.25,0.4
1.6091067790985107,0.17,-0.12,0.23,0.31
1.6302390098571777,0.05,-0.08,0.08,0.12
1.6312298774719238,0.01,-0.1,-0.17,0.19
1.639157772064209,-0.34,-1.07,0.1,1.12
1.6504578590393066,0.19,0.76,-0.1,0.78
1.659132957458496,-0.09,0.42,-1.15,1.22
1.6800909042358398,-0.39,-0.3,-0.08,0.49
1.6810178756713867,-0.01,0.19,0.11,0.21
1.689112663269043,-0.25,-0.11,-0.05,0.27
1.7003087997436523,-0.6,-0.87,0.5,1.16
1.7091448307037354,-0.08,0.78,0.03,0.78
1.7301828861236572,-0.24,0.42,-0.76,0.9
1.7311186790466309,-0.22,-0.18,-0.12,0.3
1.7391619682312012,0.01,-0.02,-0.14,0.14
1.7503437995910645,-0.28,-0.82,0.06,0.86
1.7593269348144531,-0.1,1.08,-0.55,1.21
1.7803597450256348,-0.35,0.05,-0.43,0.55
1.781266689300537,-0.49,-0.25,-0.07,0.55
1.7892308235168457,-0.04,0.28,0.04,0.28
1.8004608154296875,-0.07,0.43,-0.37,0.57
1.8093898296356201,-0.29,-0.03,0.02,0.29
1.8303508758544922,-0.16,-0.37,0.28,0.49
1.8313028812408447,-0.15,0.42,0.19,0.48
1.8392529487609863,-0.36,0.65,-0.83,1.11
1.8505187034606934,-0.44,0.14,-0.4,0.61
1.8593506813049316,-0.31,0.43,-0.22,0.57
1.8800358772277832,-0.37,0.29,-0.91,1.02
1.8809378147125244,0.28,0.43,-0.15,0.53
1.8893818855285645,-0.5,1.03,-1.17,1.63
1.9006237983703613,-0.37,0.91,-0.16,0.99
1.9094178676605225,-0.45,1.23,-1.42,1.93
1.930337905883789,-0.34,1.26,-1.56,2.03
1.9312388896942139,0.12,1.42,-1.88,2.35
1.9394617080688477,0.34,1.74,-1.24,2.16
1.950725793838501,0.0,3.06,-0.42,3.08
1.9595627784729004,-0.44,4.65,0.2,4.67
1.980700969696045,-0.91,5.68,-0.73,5.79
1.9816768169403076,-1.06,6.49,-1.08,6.66
1.9895298480987549,-1.33,7.18,-0.24,7.3
2.0010457038879395,-2.02,7.54,-0.6,7.82
2.009673833847046,-3.01,7.13,-0.6,7.76
2.0306639671325684,-3.72,6.67,-0.53,7.65
2.0316388607025146,-3.94,6.4,-0.78,7.55
2.039487838745117,-4.32,6.27,-1.35,7.73
2.0510048866271973,-4.42,5.97,-2.19,7.74
2.059703826904297,-4.24,5.76,-2.78,7.67
2.0809097290039062,-3.8,6.14,-3.81,8.16
2.081882953643799,-3.28,7.56,-4.14,9.22
2.0896639823913574,-2.42,9.43,-3.9,10.48
2.1009318828582764,-1.79,10.6,-4.52,11.66
2.109773874282837,-3.88,9.23,-4.73,11.07
2.130793809890747,-6.6,7.04,-5.37,11.04
2.1317708492279053,-7.41,7.42,-5.32,11.75
2.139861822128296,-8.12,7.99,-4.8,12.36
2.1512527465820312,-7.38,5.25,-3.11,9.57
2.1599578857421875,-5.17,3.08,-1.49,6.19
2.181593894958496,-3.26,1.05,-2.06,3.99
2.1825718879699707,-2.0,-0.07,-3.99,4.46
2.189826011657715,-1.4,-4.44,-5.88,7.49
2.201253890991211,-2.53,-5.43,-3.93,7.16
2.2099037170410156,-2.34,3.0,-4.17,5.64
2.230883836746216,-6.97,3.74,-5.37,9.56
2.2318739891052246,-11.31,0.36,-4.39,12.13
2.2398266792297363,-12.08,-1.8,-3.1,12.6
2.251452922821045,-11.04,-3.07,-2.47,11.72
2.2599878311157227,-8.9,-2.93,-2.58,9.71
2.281132698059082,-6.67,-2.34,-2.95,7.65
2.282120704650879,-5.49,-1.89,-3.38,6.71
2.2899179458618164,-4.96,-1.5,-3.32,6.15
2.301203727722168,-4.84,-1.42,-3.05,5.89
2.3100810050964355,-5.15,-1.47,-2.62,5.96
2.331151008605957,-5.9,-1.36,-2.21,6.44
2.3321290016174316,-6.34,-1.13,-2.24,6.81
2.340080738067627,-5.91,-0.79,-2.38,6.42
2.351473808288574,-4.63,-0.55,-2.27,5.18
2.360118865966797,-3.2,-0.39,-1.91,3.74
2.3809800148010254,-2.2,-0.3,-1.29,2.56
2.381959915161133,-2.03,-0.26,-0.97,2.26
2.3900668621063232,-2.46,0.03,-0.96,2.64
2.4011287689208984,-2.53,0.54,-0.61,2.65
2.410219669342041,-2.09,1.3,0.0,2.46
2.431184768676758,-1.61,1.95,0.28,2.54
2.432100772857666,-1.21,2.6,0.3,2.88
2.4401307106018066,-0.72,3.38,0.39,3.47
2.451474666595459,0.06,4.11,0.69,4.16
2.4603028297424316,0.93,4.63,0.95,4.81
2.480715751647949,2.05,5.1,1.57,5.71
2.4816088676452637,3.39,5.61,2.21,6.91
2.49019193649292,4.2,6.28,2.4,7.92
2.501567840576172,4.42,7.44,2.06,8.89
2.5102407932281494,4.8,8.88,1.66,10.22
2.531960964202881,5.87,9.69,1.69,11.45
2.5328638553619385,6.94,9.4,2.08,11.86
2.540090799331665,7.95,8.03,3.34,11.78
2.5513548851013184,9.19,6.71,4.32,12.17
2.560189723968506,10.19,5.84,4.38,12.53
2.5805978775024414,10.7,4.08,3.79,12.06
2.581516742706299,11.97,0.91,1.4,12.08
2.590397834777832,14.95,-2.07,1.95,15.21
2.601595878601074,15.05,-1.98,4.87,15.94
2.6103668212890625,14.06,1.38,3.07,14.45
2.6310548782348633,12.83,3.73,0.74,13.38
2.631950855255127,11.5,2.47,1.46,11.85
2.6404008865356445,11.64,0.18,1.78,11.77
2.651660919189453,11.89,-0.88,1.12,11.97
2.660646915435791,11.46,-0.93,0.37,11.5
2.6817216873168945,10.99,0.44,-0.4,11.0
2.6826930046081543,12.14,6.48,-0.12,13.76
2.6904549598693848,8.22,19.16,-2.55,21.0
2.701774835586548,-5.54,0.12,-0.49,5.56
2.710653781890869,-14.13,-1.83,1.46,14.32
2.731337785720825,-20.6,5.38,8.66,22.98
2.732280731201172,-3.41,5.61,12.34,13.97
2.740478992462158,12.13,4.27,3.25,13.26
2.75185489654541,7.34,-2.55,8.84,11.76
2.760571002960205,3.59,1.29,9.31,10.06
2.781688690185547,4.89,3.96,-1.04,6.37
2.7826428413391113,4.14,-0.79,-11.46,12.21
2.790613889694214,3.12,-1.73,-12.95,13.43
2.8020377159118652,3.05,-2.67,-3.77,5.53
2.8106648921966553,7.01,-1.94,-3.05,7.88
2.831350803375244,7.23,-1.12,-0.66,7.34
2.8322558403015137,2.25,0.21,3.54,4.19
2.840571880340576,-1.35,1.51,4.11,4.58
2.8518729209899902,-2.52,0.45,3.65,4.45
2.8606388568878174,-2.3,-0.12,2.89,3.69
2.881340980529785,0.13,0.09,0.83,0.84
2.8822338581085205,3.06,-0.58,-2.18,3.8
2.8907089233398438,3.89,-0.92,-3.3,5.18
2.9018328189849854,2.49,-0.63,-1.98,3.24
2.9107537269592285,0.59,-0.17,-0.42,0.74
2.9319467544555664,-1.03,0.05,0.62,1.2
2.932915687561035,-0.9,0.01,1.43,1.68
2.9408018589019775,0.37,0.07,1.93,1.96
2.9524037837982178,1.28,-0.03,1.08,1.67
2.960838794708252,1.0,-0.09,0.34,1.06
2.9816999435424805,0.43,0.03,-0.28,0.51
2.982635974884033,0.2,-0.13,-0.87,0.9
2.990907669067383,0.24,-0.32,-0.68,0.78
3.0021088123321533,0.46,-0.15,-0.19,0.51
3.010877847671509,0.26,-0.1,0.06,0.28
3.0320558547973633,-0.44,-0.11,0.26,0.52
3.033047676086426,-0.32,0.11,0.28,0.43
3.0410189628601074,-0.17,0.17,0.24,0.33
3.052393913269043,-0.36,0.12,0.09,0.38
3.0610618591308594,-0.57,0.2,-0.08,0.6
3.081638813018799,-0.72,0.34,-0.25,0.83
3.0825397968292236,-0.86,0.28,-0.35,0.96
3.0910627841949463,-0.95,0.27,-0.45,1.08
3.102191925048828,-0.73,0.43,-0.36,0.92
3.1110987663269043,-0.97,0.39,-0.18,1.06
3.1321518421173096,-1.22,0.28,-0.48,1.34
3.1331558227539062,-1.17,0.25,-0.35,1.24
3.1410489082336426,-1.12,0.37,-0.49,1.27
3.152637004852295,-0.66,0.46,-0.85,1.17
3.161259889602661,-0.23,0.65,-0.66,0.95
3.1824138164520264,-0.22,0.81,-0.37,0.91
3.1833930015563965,-0.59,1.0,-0.26,1.18
3.191257953643799,-1.32,1.26,0.63,1.93
3.202514886856079,-2.05,0.87,0.74,2.34
3.211273670196533,-2.9,1.22,0.47,3.18
3.232999801635742,-2.92,1.88,-0.15,3.47
3.233977794647217,-2.38,2.14,-1.2,3.41
3.241231918334961,-1.76,2.35,-1.44,3.27
3.2528278827667236,-1.4,2.38,-1.54,3.16
3.261258840560913,-1.31,2.28,-1.23,2.9
3.283336877822876,-1.6,2.56,-1.43,3.34
3.284336805343628,-1.37,3.04,-1.95,3.86
3.291508674621582,-0.76,3.39,-1.93,3.97
3.302517890930176,-0.46,3.24,-1.26,3.5
3.311830997467041,-0.53,3.2,-0.51,3.28
3.3335108757019043,-0.82,3.99,-0.68,4.12
3.3344998359680176,-1.71,5.24,-1.24,5.64
3.341470718383789,-2.61,6.96,-2.4,7.81
3.3531808853149414,-3.12,8.33,-4.25,9.85
3.3617019653320312,-3.4,9.12,-5.46,11.16
3.3835058212280273,-3.8,10.03,-6.15,12.36
3.3844847679138184,-4.56,11.07,-6.71,13.72
3.3918209075927734,-6.56,11.74,-5.23,14.42
3.4028677940368652,-9.26,14.59,-5.07,18.0
3.411947727203369,-9.55,24.48,-5.19,26.78
3.4332399368286133,-3.44,16.36,-7.06,18.14
3.4342169761657715,-4.01,9.47,-5.93,11.87
3.441500663757324,-8.64,9.53,-5.49,13.98
3.452934741973877,-11.33,8.07,-4.4,14.58
3.4616799354553223,-10.85,3.91,-1.87,11.68
3.483186721801758,-7.97,-0.14,-0.11,7.97
3.48420786857605,-3.72,-4.72,-4.15,7.3
3.491689682006836,-0.44,-10.09,-6.82,12.18
3.5030648708343506,2.33,-11.49,-4.89,12.7
3.5118069648742676,-3.56,-5.33,-5.69,8.57
3.533367872238159,-10.49,0.58,-5.68,11.94
3.534353733062744,-13.84,3.86,-5.16,15.26
3.541644811630249,-16.04,-0.36,-2.36,16.21
3.5530576705932617,-15.15,-4.46,-0.91,15.81
3.5616979598999023,-11.53,-5.88,-1.12,12.99
3.5827248096466064,-7.85,-5.46,-1.19,9.63
3.5836808681488037,-6.21,-3.52,-1.95,7.39
3.5917530059814453,-5.98,-2.41,-2.32,6.85
3.602813720703125,-6.5,-2.49,-2.29,7.32
3.611682891845703,-7.4,-2.3,-2.08,8.02
3.632340908050537,-7.85,-1.91,-1.39,8.19
3.633248805999756,-7.53,-1.5,-0.57,7.69
3.6416749954223633,-6.34,-1.27,-0.5,6.48
3.6529197692871094,-4.58,-0.83,-0.88,4.73
3.6618146896362305,-3.44,-0.07,-0.78,3.52
3.682809829711914,-2.97,0.4,-0.25,3.0
3.683785915374756,-2.71,0.55,0.31,2.78
3.69181489944458,-2.08,1.19,0.61,2.47
3.7029190063476562,-1.21,2.52,0.42,2.82
3.7118778228759766,-0.22,4.11,0.38,4.13
3.7329277992248535,0.86,5.32,0.55,5.41
3.7338218688964844,1.5,6.64,0.47,6.82
3.741882801055908,2.32,7.92,0.71,8.28
3.7531089782714844,3.22,8.96,1.11,9.58
3.7621469497680664,4.45,10.31,1.55,11.33
3.7828378677368164,5.65,12.09,2.14,13.51
3.783738851547241,6.63,13.6,2.16,15.28
3.7919859886169434,8.12,13.62,2.18,16.0
3.8032050132751465,10.4,11.87,3.33,16.12
3.8119637966156006,12.37,8.89,3.81,15.7
3.8318698406219482,15.36,4.96,3.95,16.61
3.8327648639678955,18.85,1.76,3.8,19.3
3.8420538902282715,21.01,1.62,5.09,21.67
3.8532018661499023,20.84,2.9,6.83,22.12
3.8620119094848633,19.5,3.86,5.2,20.54
3.882002830505371,18.14,2.91,4.71,18.96
3.882866859436035,17.69,1.01,5.25,18.48
3.8921258449554443,18.16,14.83,3.29,23.67
3.9032628536224365,10.6,16.89,-0.65,19.95
3.9120988845825195,1.58,2.08,-9.37,9.72
3.932159900665283,-14.64,1.49,-12.37,19.22
3.9330668449401855,-23.19,0.79,13.87,27.03
3.942020893096924,3.35,6.3,15.67,17.21
3.953338861465454,12.49,4.16,0.15,13.16
3.9621458053588867,8.27,0.42,1.85,8.48
3.9825258255004883,4.04,-2.02,2.3,5.06
3.9834327697753906,4.64,-1.82,-0.69,5.03
3.9921326637268066,6.25,-0.16,-1.15,6.35
4.003224849700928,6.94,-0.03,-0.48,6.95
4.012215852737427,6.41,-1.13,-1.57,6.69
4.032032012939453,5.85,-1.81,-1.58,6.32
4.032911777496338,4.99,-1.08,0.03,5.1
4.042277812957764,1.68,0.17,3.02,3.46
4.0536909103393555,-1.74,0.54,3.86,4.26
4.062412738800049,-1.65,0.42,1.76,2.44
4.082911968231201,-1.12,0.31,0.34,1.21
4.083812713623047,0.5,-0.08,0.11,0.51
4.092313766479492,3.08,-0.25,-1.23,3.32
4.103572845458984,3.98,-0.37,-2.02,4.47
4.112381935119629,2.96,-0.39,-0.92,3.12
4.133206844329834,0.58,0.08,0.16,0.6
4.134110927581787,-1.4,0.5,1.04,1.81
4.142323970794678,-1.69,0.68,0.8,1.98
4.1535937786102295,-0.52,0.49,0.29,0.77
4.162545680999756,0.49,0.13,-0.02,0.5
4.183298826217651,0.54,0.2,-0.55,0.79
4.184208869934082,-0.13,0.34,-0.65,0.74
4.192568778991699,-0.58,0.13,-0.51,0.78
4.203851699829102,-0.48,0.02,-0.04,0.48
4.21259069442749,-0.78,0.11,-0.07,0.79
4.233331680297852,-0.48,0.04,0.06,0.48
4.2342329025268555,0.18,-0.12,0.09,0.23
4.242713928222656,0.08,-0.28,-0.16,0.33
4.2558488845825195,-0.58,-0.34,-0.42,0.79
4.26272988319397,-0.99,0.04,-0.35,1.05
4.283547878265381,-0.96,0.44,-0.04,1.05
4.284514904022217,-1.03,0.49,0.06,1.14
4.292667865753174,-0.75,0.32,0.14,0.82
4.303800821304321,-0.26,0.18,0.27,0.41
4.312800884246826,-0.01,0.16,0.49,0.51
4.334095001220703,-0.17,0.18,0.4,0.47
4.335100889205933,-0.27,0.2,0.14,0.36
4.342582702636719,-0.27,0.18,0.05,0.32
4.35405969619751,-0.31,0.18,-0.13,0.38
4.3628249168396,-0.08,0.3,-0.21,0.37
4.384765863418579,-0.03,0.41,-0.1,0.42
4.385660886764526,-0.56,0.41,0.0,0.69
4.392720699310303,-1.18,0.62,-0.07,1.33
4.404071807861328,-1.57,0.86,-0.18,1.79
4.412930011749268,-2.08,1.2,-0.3,2.42
4.43508768081665,-2.24,1.67,-0.84,2.91
4.436025857925415,-2.24,2.01,-1.19,3.23
4.443052768707275,-2.08,2.25,-1.48,3.4
4.454254865646362,-2.1,2.32,-1.34,3.4
4.4629926681518555,-2.04,2.45,-1.41,3.48
4.484205722808838,-2.01,2.99,-1.77,4.01
4.485198974609375,-2.13,3.64,-1.83,4.59
4.492977857589722,-2.16,3.89,-1.58,4.72
4.504542827606201,-2.04,3.77,-1.26,4.46
4.5130088329315186,-2.26,3.7,-1.07,4.46
4.534050941467285,-2.5,4.08,-1.52,5.02
4.535027980804443,-2.7,4.85,-2.02,5.9
4.542995929718018,-3.16,6.2,-3.06,7.6
4.554701805114746,-4.17,7.67,-4.68,9.9
4.562941789627075,-5.06,8.69,-5.15,11.29
4.584160804748535,-7.11,11.51,-5.18,14.48
4.585157871246338,-13.22,19.83,-4.11,24.18
4.593188762664795,-10.43,17.1,-5.23,20.7
4.604274749755859,-7.21,8.43,-4.01,11.79
4.61316180229187,-7.57,8.08,-3.68,11.66
4.634220838546753,-7.25,10.77,-5.13,13.95
4.635214805603027,-6.41,12.21,-4.65,14.55
4.643068790435791,-6.99,11.03,-3.42,13.49
4.654245853424072,-8.46,8.82,-2.54,12.48
4.663057804107666,-8.32,6.91,-1.83,10.96
4.6839399337768555,-5.07,1.83,-1.96,5.73
4.684848785400391,-2.09,-5.12,-5.01,7.46
4.693238735198975,0.94,-7.75,-4.99,9.26
4.70428466796875,1.09,-4.96,-4.57,6.83
4.713188886642456,-5.18,-2.02,-5.78,8.02
4.733353853225708,-11.28,0.51,-3.97,11.96
4.734269857406616,-13.62,0.71,-3.11,13.98
4.743188858032227,-12.83,-2.36,-2.17,13.22
4.754518985748291,-11.45,-5.47,-1.38,12.76
4.763323783874512,-9.08,-6.12,-1.68,11.07
4.783881664276123,-7.16,-5.3,-2.03,9.13
4.7847819328308105,-6.82,-4.44,-2.11,8.4
4.793398857116699,-7.26,-4.47,-1.95,8.74
4.804467678070068,-7.32,-4.67,-1.71,8.84
4.813440799713135,-6.99,-4.39,-1.61,8.4
4.834134817123413,-6.93,-3.88,-1.48,8.07
4.835036754608154,-6.85,-3.2,-1.1,7.64
4.843286991119385,-6.24,-2.64,-0.94,6.84
4.85463285446167,-5.09,-2.21,-1.01,5.64
4.863451957702637,-3.8,-1.4,-0.79,4.12
4.884784698486328,-2.77,-0.47,-0.69,2.89
4.885783672332764,-2.04,-0.03,-0.54,2.11
4.893601894378662,-1.56,0.55,-0.64,1.77
4.90500283241272,-1.0,1.6,-0.77,2.03
4.913680791854858,0.02,3.07,-0.83,3.18
4.93434476852417,1.39,4.56,-1.08,4.88
4.935243844985962,2.47,6.07,-1.2,6.66
4.943569660186768,3.41,7.23,-1.02,8.05
4.95479679107666,4.65,7.93,-0.65,9.21
4.963644981384277,6.23,8.97,-0.29,10.92
4.984424829483032,7.57,10.74,-0.42,13.14
4.985342979431152,8.41,13.8,-0.49,16.16
4.993645668029785,8.45,20.55,-1.27,22.25
5.004832744598389,13.16,5.92,1.75,14.53
5.013650894165039,15.29,4.67,3.22,16.3
5.034916877746582,17.43,10.08,1.2,20.17
5.035905838012695,21.06,6.54,2.23,22.16
5.043578863143921,20.59,2.79,3.81,21.12
5.0550947189331055,20.65,3.9,5.59,21.74
5.063655853271484,20.8,4.87,5.65,22.09
5.0851287841796875,19.12,11.92,5.41,23.17
5.086113929748535,12.55,23.94,5.11,27.5
5.093822002410889,10.24,1.75,5.95,11.97
5.105151891708374,1.67,-4.44,-7.89,9.2
5.113987922668457,-17.59,5.41,-7.22,19.76
5.135217666625977,-23.63,2.91,15.38,28.34
5.136207818984985,4.26,0.48,13.5,14.16
5.143844842910767,15.08,1.89,-1.55,15.27
5.1553778648376465,11.64,4.52,2.54,12.74
5.163946866989136,5.1,2.37,2.79,6.27
5.185081958770752,3.83,-1.11,0.08,3.98
5.186055660247803,3.63,-0.7,-3.97,5.42
5.193966865539551,3.34,-0.24,-3.29,4.69
5.20524787902832,4.71,-1.15,-0.83,4.91
5.214096784591675,5.94,-1.35,-0.71,6.13
5.2351179122924805,6.44,-0.73,0.19,6.48
5.236099720001221,4.03,-0.38,0.95,4.15
5.243985891342163,0.32,-0.3,2.6,2.63
5.25524377822876,-1.16,0.11,3.83,4.0
5.263889789581299,-1.05,0.21,3.36,3.52
5.284798860549927,0.16,0.08,1.65,1.65
5.285709857940674,1.34,-0.02,-0.41,1.4
5.294034957885742,2.13,-0.3,-2.19,3.06
5.305093765258789,3.83,-0.6,-2.14,4.42
5.314075946807861,3.99,-0.41,-1.23,4.19
5.335078716278076,1.69,-0.04,-0.22,1.7
5.335976839065552,-0.9,0.33,1.17,1.51
5.343998908996582,-1.97,0.6,1.34,2.45
5.355302810668945,-1.38,0.43,0.84,1.67
5.3641886711120605,0.11,0.17,0.19,0.27
5.385018825531006,1.04,0.06,-0.44,1.13
5.3860108852386475,1.03,-0.02,-0.7,1.24
5.394207000732422,0.07,-0.13,-0.37,0.39
5.405425786972046,-0.58,-0.02,-0.06,0.58
5.4141387939453125,-0.4,0.21,0.26,0.52
5.435256004333496,-0.39,0.24,0.09,0.46
5.436157703399658,-0.58,0.04,-0.07,0.58
5.444223880767822,-0.79,0.03,-0.33,0.85
5.45579195022583,-0.72,0.18,-0.67,0.99
5.464315891265869,-0.63,0.06,-0.71,0.95
5.4851837158203125,-0.9,-0.12,-0.64,1.11
5.486084938049316,-1.31,0.02,-0.71,1.49
5.494335889816284,-1.33,0.22,-0.27,1.37
5.505525827407837,-1.19,0.36,-0.04,1.24
5.514315843582153,-0.42,0.79,-0.17,0.91
5.535372734069824,0.3,0.76,0.74,1.1
5.536275863647461,0.3,0.26,0.59,0.71
5.544261932373047,-0.4,0.22,0.33,0.56
5.555766820907593,-0.91,0.24,-0.14,0.95
5.564382791519165,-1.43,0.45,-0.3,1.52
5.585655689239502,-1.68,0.73,-0.42,1.87
5.586629867553711,-1.34,0.9,-0.57,1.71
5.594522953033447,-1.19,0.96,-0.47,1.59
5.605801820755005,-1.38,1.05,-0.74,1.88
5.6144819259643555,-1.96,1.37,-0.63,2.47
5.635619878768921,-2.67,1.7,-1.22,3.39
5.6365966796875,-2.78,2.28,-1.39,3.85
5.644414901733398,-2.63,2.54,-1.03,3.79
5.655800819396973,-2.3,2.29,-0.87,3.36
5.664440870285034,-2.05,2.3,-0.87,3.2
5.685876846313477,-1.88,2.56,-1.04,3.34
5.686859846115112,-1.74,3.01,-1.18,3.67
5.694545745849609,-1.63,3.45,-1.28,4.02
5.7058188915252686,-1.59,3.23,-1.37,3.85
5.714684009552002,-1.73,3.07,-1.06,3.67
5.7357518672943115,-2.33,3.67,-1.27,4.52
5.736738681793213,-3.28,4.19,-2.34,5.81
5.744726896286011,-3.62,4.53,-2.93,6.49
5.756026744842529,-3.73,4.87,-3.19,6.91
5.764666795730591,-4.34,5.78,-4.08,8.3
5.786151885986328,-7.48,10.84,-4.07,13.78
5.7871458530426025,-10.89,16.69,-3.66,20.26
5.794713973999023,-6.64,14.14,-5.35,16.51
5.806155681610107,-5.56,8.45,-3.12,10.58
5.8148767948150635,-7.71,5.97,-2.15,9.98
5.8359479904174805,-8.57,8.24,-3.95,12.52
5.836928844451904,-7.37,9.67,-3.99,12.79
5.844664812088013,-5.54,8.33,-3.98,10.76
5.856113910675049,-4.92,6.83,-3.6,9.15
5.8648457527160645,-6.27,7.43,-2.26,9.98
5.885891914367676,-5.23,5.72,-1.26,7.85
5.88686990737915,-1.53,-1.14,-1.87,2.67
5.894950866699219,-0.24,-6.88,-5.71,8.94
5.905900955200195,0.17,-5.89,-5.8,8.26
5.914958953857422,-2.75,-1.69,-5.07,6.01
5.9358298778533936,-7.7,0.38,-5.31,9.36
5.936738014221191,-11.77,0.78,-4.51,12.62
5.944804668426514,-13.24,-0.2,-3.34,13.65
5.956265926361084,-11.53,-1.64,-1.53,11.74
5.964846849441528,-10.24,-4.55,-0.7,11.22
5.985790729522705,-8.46,-6.01,-1.04,10.42
5.986684799194336,-6.87,-6.03,-1.42,9.25
5.995099782943726,-6.77,-6.0,-1.82,9.22
6.006067752838135,-7.94,-6.44,-2.19,10.45
6.01496696472168,-7.62,-2.93,-2.47,8.52
6.035470962524414,-6.82,-2.27,-1.13,7.27
6.036387920379639,-6.63,-3.58,-0.56,7.55
6.044989824295044,-6.39,-4.51,-0.86,7.86
6.056237697601318,-5.85,-3.87,-1.13,7.1
6.0649378299713135,-5.37,-2.64,-0.95,6.05
6.085649013519287,-4.83,-1.85,-0.77,5.22
6.086549758911133,-3.8,-1.18,-0.5,4.01
6.095176696777344,-2.58,-0.36,-0.27,2.61
6.106395721435547,-1.97,0.48,-0.32,2.05
6.115149974822998,-1.47,1.74,-0.47,2.32
6.135540962219238,-0.77,3.68,-0.59,3.8
6.136447906494141,0.58,5.77,-1.04,5.89
6.1450488567352295,2.36,7.63,-1.76,8.17
6.15654182434082,4.55,8.89,-1.48,10.09
6.165450811386108,6.95,9.75,-0.78,11.99
6.185995817184448,7.99,10.76,-0.69,13.41
6.186913967132568,7.84,11.97,-1.05,14.34
6.195312976837158,8.53,12.8,-1.64,15.46
6.206575870513916,11.22,11.87,-1.44,16.39
6.215327739715576,15.31,8.93,-0.63,17.73
6.235801696777344,18.87,5.55,0.59,19.67
6.2367048263549805,20.35,2.46,1.59,20.55
6.245128870010376,19.96,1.98,2.8,20.25
6.2565999031066895,19.9,4.88,3.0,20.7
6.265347003936768,19.88,6.97,3.35,21.33
6.285619735717773,17.87,5.91,4.07,19.25
6.286526679992676,12.95,21.53,4.03,25.44
6.295325756072998,9.85,16.11,6.65,20.01
6.306459903717041,7.39,-5.6,2.34,9.56
6.315401792526245,-7.19,-1.2,-5.9,9.37
6.335253715515137,-25.3,5.83,4.0,26.26
6.336165904998779,-13.21,0.45,17.24,21.72
6.34529972076416,13.93,1.43,4.79,14.79
6.3566508293151855,16.35,4.65,-0.78,17.01
6.3654327392578125,8.94,2.64,2.48,9.64
6.385756969451904,4.09,0.28,0.63,4.14
6.386699676513672,3.73,-0.61,-3.95,5.46
6.395396709442139,3.98,-0.88,-4.13,5.8
6.406592845916748,3.29,-0.5,-1.48,3.64
6.415620803833008,2.98,-0.44,-1.42,3.33
6.436190843582153,3.03,-0.92,-0.21,3.17
6.437098979949951,3.44,-0.47,1.24,3.68
6.44556999206543,1.44,0.0,1.86,2.35
6.456826686859131,-0.19,-0.15,3.2,3.2
6.465434789657593,-0.18,-0.01,3.2,3.2
6.486352920532227,0.0,0.14,2.6,2.6
6.48725700378418,0.5,-0.12,1.18,1.28
6.495628833770752,1.4,-0.16,-1.14,1.81
6.506761789321899,2.16,-0.23,-1.65,2.72
6.515655994415283,2.3,-0.43,-1.26,2.65
6.536603927612305,2.69,-0.32,-1.1,2.92
6.537508964538574,2.13,0.0,0.57,2.2
6.545613765716553,0.13,0.22,1.66,1.67
6.55691385269165,-1.17,0.33,1.36,1.82
6.565590858459473,-0.77,0.39,0.86,1.21
6.586645841598511,-0.04,0.22,0.8,0.83
6.587545871734619,0.44,0.13,-0.14,0.47
6.595823764801025,0.28,0.23,-0.68,0.77
6.607127666473389,-0.76,0.03,-0.57,0.95
6.615929841995239,-0.57,0.05,-0.2,0.6
6.63715386390686,-0.38,0.02,0.55,0.66
6.638158798217773,-0.84,-0.03,0.09,0.84
6.6456968784332275,-0.41,0.09,-0.43,0.6
6.657127857208252,0.04,-0.01,-0.32,0.32
6.665881872177124,-0.03,-0.07,-0.58,0.58
6.686516761779785,-0.44,0.13,-0.84,0.95
6.687422752380371,-0.66,-0.1,-0.61,0.9
6.695981979370117,-0.43,-0.26,-0.58,0.76
6.7069878578186035,-0.87,-0.02,-0.29,0.91
6.715971946716309,-1.02,0.1,-0.35,1.08
6.736851692199707,-0.88,0.12,-0.42,0.98
6.737757682800293,-0.38,0.34,-0.11,0.52
6.745950698852539,0.32,0.45,-0.01,0.55
6.7574098110198975,0.58,0.33,-0.17,0.68
6.7658607959747314,0.47,0.11,-0.28,0.55
6.787158966064453,0.13,-0.07,-0.4,0.42
6.788125991821289,0.0,0.05,-0.3,0.3
6.796127796173096,-0.23,0.38,-0.27,0.51
6.807330846786499,-0.38,0.52,-0.25,0.69
6.816296815872192,-0.48,0.76,-0.29,0.94
6.837559700012207,-0.67,0.93,-0.17,1.15
6.838579893112183,-1.11,1.14,-0.53,1.67
6.845993995666504,-1.57,1.41,-0.65,2.2
6.857442855834961,-1.94,1.49,-0.64,2.52
6.866106986999512,-2.25,1.44,-0.58,2.73
6.886802673339844,-2.22,1.43,-0.5,2.68
6.8877058029174805,-2.14,1.63,-0.37,2.71
6.896154880523682,-2.13,1.75,-0.39,2.78
6.907183885574341,-2.05,1.93,-0.71,2.9
6.916180849075317,-1.92,2.22,-0.84,3.05
6.936691761016846,-1.72,2.37,-0.91,3.06
6.937598705291748,-1.63,2.51,-0.95,3.13
6.946177959442139,-1.56,2.48,-0.99,3.09
6.957498788833618,-1.66,2.75,-1.22,3.43
6.966113805770874,-1.89,3.35,-1.65,4.18
6.986560821533203,-1.97,3.67,-1.87,4.56
6.987466812133789,-2.1,4.43,-2.27,5.4
6.996384859085083,-2.64,5.92,-3.31,7.27
7.007504940032959,-3.46,7.36,-3.91,9.02
7.016391754150391,-4.17,7.74,-3.56,9.48
7.036782741546631,-9.14,13.56,-3.13,16.64
7.037704944610596,-12.64,20.6,-3.38,24.4
7.046239852905273,-9.04,13.21,-5.94,17.07
7.05774188041687,-11.01,2.74,-3.9,11.99
7.066407680511475,-10.95,6.6,-3.81,13.34
7.086533784866333,-8.97,11.26,-6.65,15.85
7.087440013885498,-7.59,9.81,-5.55,13.58
7.096426010131836,-6.87,6.41,-4.18,10.28
7.107627868652344,-6.19,3.27,-3.03,7.62
7.116468906402588,-3.75,2.65,-2.27,5.12
7.136782884597778,-0.25,2.37,-2.38,3.36
7.137682914733887,3.01,-3.82,-4.52,6.63
7.146395683288574,0.1,-6.82,-6.46,9.39
7.1577019691467285,-1.8,-5.27,-3.52,6.58
7.166526794433594,-3.84,-4.11,-4.41,7.14
7.187413692474365,-7.82,-2.5,-5.96,10.14
7.188314914703369,-10.01,-0.45,-4.6,11.02
7.196667671203613,-10.51,-2.6,-2.92,11.21
7.2078046798706055,-10.24,-6.01,-1.93,12.02
7.21665096282959,-8.17,-7.02,-2.02,10.95
7.237098693847656,-6.04,-6.4,-2.65,9.19
7.237991809844971,-5.06,-5.46,-3.28,8.13
7.2466959953308105,-5.35,-4.77,-3.64,8.03
7.257885932922363,-6.29,-5.46,-3.66,9.09
7.2666449546813965,-7.45,-6.58,-3.36,10.49
7.287554740905762,-5.34,-1.1,-3.3,6.37
7.288465976715088,-4.47,-1.69,-2.06,5.2
7.296670913696289,-4.47,-3.56,-1.58,5.92
7.307973861694336,-4.08,-4.14,-1.61,6.03
7.316866874694824,-3.18,-3.07,-1.79,4.76
7.337969779968262,-2.67,-1.56,-1.95,3.65
7.3389458656311035,-2.41,-0.53,-1.89,3.1
7.3467137813568115,-2.39,0.08,-1.31,2.72
7.3582377433776855,-1.65,1.16,-0.82,2.17
7.366823673248291,-0.68,1.96,-0.82,2.23
7.387765884399414,-0.06,3.04,-0.88,3.16
7.388749837875366,0.29,4.38,-0.68,4.44
7.396795749664307,1.11,5.82,-0.81,5.98
7.408055782318115,2.06,6.15,-0.2,6.48
7.4169487953186035,3.11,6.18,0.96,6.98
7.437882900238037,4.56,7.78,1.0,9.07
7.438854694366455,6.04,9.61,1.43,11.44
7.446835994720459,6.94,10.44,1.66,12.64
7.458716869354248,7.71,10.98,1.53,13.5
7.467301845550537,8.69,12.08,2.83,15.14
7.487152814865112,9.49,12.17,3.87,15.91
7.488053798675537,10.89,10.1,3.54,15.26
7.496906757354736,13.65,7.12,3.93,15.88
7.508081912994385,16.9,4.13,4.81,18.05
7.5170369148254395,18.87,2.11,4.93,19.61
7.537286758422852,18.1,3.3,5.36,19.16
7.5381927490234375,15.24,5.53,5.47,17.11
7.54684591293335,13.18,5.5,5.52,15.31
7.558405876159668,12.82,4.59,5.25,14.59
7.567007780075073,10.61,17.49,4.8,21.01
7.587517738342285,3.69,14.47,1.2,14.98
7.588418006896973,-2.49,-4.8,-1.23,5.54
7.597157001495361,-11.91,-2.92,-2.83,12.58
7.6082987785339355,-17.21,1.88,1.83,17.4
7.6171979904174805,-4.9,1.55,8.92,10.29
7.637833833694458,8.68,3.08,5.2,10.57
7.6387529373168945,10.48,3.35,0.64,11.02
7.6469550132751465,6.25,4.35,0.96,7.67
7.658506870269775,2.75,0.44,-2.18,3.53
7.667182922363281,3.05,-1.88,-4.62,5.84
7.6879308223724365,3.63,-0.98,-2.54,4.53
7.688833713531494,4.45,-0.9,-0.38,4.55
7.697234869003296,5.28,-0.14,-0.63,5.31
7.708475828170776,4.77,0.7,0.96,4.91
7.717314720153809,3.28,-0.04,1.83,3.75
7.737590789794922,1.88,-0.14,2.89,3.45
7.7385029792785645,0.83,-0.06,3.32,3.42
7.747075796127319,0.08,-0.08,2.82,2.82
7.7585039138793945,-0.32,0.09,1.4,1.43
7.767284870147705,-0.57,-0.02,0.0,0.57
7.7879438400268555,-0.1,-0.05,-0.85,0.85
7.788849830627441,0.65,0.06,-1.65,1.77
7.7972307205200195,0.96,-0.07,-2.12,2.32
7.808494806289673,1.86,-0.19,-1.59,2.45
7.817511796951294,2.07,0.01,-1.38,2.48
7.838354825973511,1.39,-0.01,-0.65,1.53
7.839293003082275,0.36,-0.06,0.59,0.69
7.847263813018799,-0.86,0.14,0.98,1.31
7.858782768249512,-1.78,0.1,1.25,2.17
7.867441892623901,-2.13,0.07,0.65,2.22
7.888641834259033,-0.76,0.19,0.29,0.83
7.889618873596191,0.5,0.04,-0.26,0.56
7.897270679473877,0.35,0.04,-1.06,1.11
7.909029006958008,0.04,0.08,-1.31,1.31
7.917667865753174,-0.11,0.03,-0.72,0.72
7.938422679901123,-0.56,-0.04,-0.01,0.56
7.939335823059082,-1.27,0.08,0.47,1.35
7.947381973266602,-1.19,0.13,0.86,1.47
7.958948850631714,-0.75,0.06,0.41,0.85
7.9677228927612305,-0.23,0.01,0.2,0.3
7.988641738891602,-0.03,0.01,-0.24,0.24
7.9896228313446045,-0.33,0.05,-0.49,0.59
7.9975199699401855,-0.72,0.09,-0.54,0.9
8.008989810943604,-0.68,0.17,-0.2,0.72
8.017778873443604,-0.48,0.18,0.21,0.55
8.038474798202515,-0.35,0.14,0.39,0.54
8.039397716522217,-0.06,0.11,0.13,0.18
8.047553777694702,0.18,0.1,0.32,0.38
8.059276819229126,0.17,0.09,0.01,0.19
8.067688941955566,0.05,0.19,-0.31,0.36
8.088810920715332,-0.15,0.16,-0.3,0.37
8.089719772338867,-0.64,0.13,-0.21,0.68
8.097760677337646,-1.02,0.36,-0.32,1.12
8.108958721160889,-1.48,0.67,-0.52,1.7
8.117842674255371,-1.72,1.01,-0.95,2.2
8.138121843338013,-1.28,1.36,-0.82,2.03
8.139028787612915,-1.1,1.57,-0.49,1.97
8.147721767425537,-1.37,1.86,-0.51,2.36
8.158915996551514,-1.88,2.25,-0.91,3.07
8.16791296005249,-1.96,2.68,-1.15,3.51
8.188278675079346,-1.64,2.9,-1.17,3.53
8.189175844192505,-1.22,2.8,-1.13,3.25
8.197726726531982,-1.09,3.0,-0.94,3.32
8.209045886993408,-1.42,3.44,-0.81,3.8
8.217988014221191,-2.11,4.18,-1.16,4.82
8.238357782363892,-2.9,5.38,-1.68,6.33
8.239256858825684,-3.48,6.89,-2.77,8.2
8.247782707214355,-4.4,8.64,-3.7,10.37
8.259269714355469,-5.69,10.16,-4.56,12.5
8.26833200454712,-7.2,10.66,-5.36,13.93
8.288471698760986,-8.4,10.44,-5.11,14.34
8.289381980895996,-11.85,12.0,-3.53,17.23
8.298073768615723,-14.4,16.72,-2.77,22.23
8.309252738952637,-7.73,13.27,-3.21,15.68
8.31811785697937,-4.94,8.2,-1.74,9.72
8.339021682739258,-6.55,7.31,-2.71,10.18
8.339937686920166,-8.02,8.96,-4.92,12.99
8.347927808761597,-8.94,7.12,-5.17,12.54
8.359683990478516,-9.38,2.93,-4.06,10.63
8.368152856826782,-7.54,0.5,-3.62,8.37
8.389466762542725,-4.24,0.71,-3.92,5.81
8.3904447555542,0.88,-2.68,-4.95,5.69
8.398042678833008,1.05,-6.02,-5.32,8.1
8.409544944763184,2.3,-8.82,-4.62,10.21
8.418386936187744,0.82,-7.35,-4.53,8.67
8.43959379196167,-5.06,-1.23,-5.36,7.47
8.4405837059021,-9.0,2.6,-3.74,10.08
8.44817590713501,-14.2,-3.27,-2.8,14.83
8.459840774536133,-13.53,-6.78,-2.62,15.35
8.468413829803467,-9.55,-7.51,-2.12,12.33
8.48973798751831,-5.73,-6.42,-1.96,8.82
8.490710735321045,-3.99,-5.28,-2.91,7.22
8.498307704925537,-4.53,-5.86,-3.94,8.38
8.509856700897217,-6.31,-7.56,-3.96,10.61
8.518593788146973,-5.49,-2.93,-3.67,7.22
8.539982795715332,-5.18,-2.54,-2.27,6.19
8.54095983505249,-5.67,-3.93,-1.59,7.07
8.548431873321533,-5.58,-4.11,-1.64,7.12
8.559934854507446,-4.79,-3.61,-2.01,6.32
8.568392753601074,-3.81,-2.47,-2.13,5.01
8.590336799621582,-2.78,-1.57,-2.16,3.85
8.591309785842896,-1.62,-0.57,-1.91,2.56
8.598272800445557,-0.7,0.18,-1.36,1.54
8.609831809997559,-0.2,0.65,-1.07,1.26
8.618716716766357,0.35,1.57,-1.37,2.11
8.639728784561157,1.16,3.02,-1.76,3.68
8.64071273803711,2.15,4.65,-1.84,5.44
8.64845085144043,2.98,5.77,-2.06,6.81
8.660109996795654,4.0,6.51,-1.96,7.88
8.668502807617188,5.49,6.95,-1.62,9.0
8.689836978912354,6.5,7.5,-1.3,10.0
8.690821886062622,6.52,8.19,-0.83,10.5
8.69852876663208,6.22,9.04,-0.48,10.98
8.709906816482544,6.66,9.9,0.12,11.93
8.718872785568237,7.94,10.08,1.22,12.88
8.739401817321777,8.86,9.79,2.02,13.35
8.740294933319092,8.83,9.31,2.38,13.05
8.748502731323242,9.15,7.62,2.39,12.14
8.760193824768066,10.98,5.41,2.65,12.52
8.76876187324524,12.99,3.33,4.06,14.01
8.789905786514282,13.5,2.93,5.57,14.89
8.79089069366455,12.68,4.24,5.93,14.62
8.798662662506104,11.57,5.01,6.0,13.96
8.809975862503052,11.51,4.47,6.5,13.95
8.818850994110107,12.17,3.52,6.45,14.21
8.839987754821777,12.62,2.83,5.4,14.01
8.840969800949097,10.43,14.98,5.27,18.99
8.848697662353516,0.48,19.28,0.99,19.31
8.860281944274902,-6.73,-5.0,-0.32,8.39
8.868876934051514,-17.61,-3.88,-4.57,18.6
8.889709949493408,-19.82,1.14,5.51,20.6
8.890607833862305,2.57,2.0,13.22,13.61
8.898794889450073,12.64,3.55,2.29,13.32
8.910179853439331,10.08,1.9,1.42,10.35
8.918808937072754,5.17,4.5,1.87,7.1
8.939519882202148,2.45,1.52,-2.06,3.54
8.940414905548096,2.28,-1.38,-3.15,4.12
8.94875979423523,3.15,-1.12,-1.29,3.58
8.960194826126099,5.19,-1.0,0.03,5.28
8.968917846679688,6.99,-0.07,-1.13,7.08
8.989953994750977,5.33,0.47,-0.17,5.35
8.990863800048828,2.83,-0.09,2.05,3.49
8.998933792114258,1.94,-0.01,2.54,3.19
9.010046005249023,0.43,0.21,2.73,2.77
9.019096851348877,-0.24,-0.1,2.83,2.84
9.039718866348267,0.09,-0.04,1.73,1.73
9.040616989135742,0.27,-0.05,0.3,0.4
9.048918724060059,0.45,-0.13,-0.94,1.05
9.060317993164062,1.19,-0.06,-1.99,2.31
9.069222927093506,1.9,-0.13,-2.35,3.02
9.090128898620605,2.2,-0.24,-1.73,2.8
9.091063976287842,1.78,-0.06,0.02,1.78
9.099108695983887,0.28,0.21,1.63,1.66
9.110248804092407,-0.67,0.27,1.87,2.0
9.11912488937378,-0.63,0.25,1.2,1.37
9.14019775390625,-0.38,0.35,0.19,0.55
9.141110897064209,0.19,0.22,-0.84,0.88
9.149014949798584,0.7,-0.04,-1.65,1.79
9.160363674163818,0.82,-0.07,-1.38,1.6
9.16901683807373,-0.13,-0.04,-1.03,1.03
9.189818859100342,-1.46,-0.11,-0.96,1.75
9.190751791000366,-2.11,-0.03,-0.36,2.14
9.199055671691895,-1.94,0.13,-0.15,1.95
9.21035885810852,-1.48,0.1,-0.42,1.54
9.219282865524292,-1.24,0.23,-0.46,1.34
9.2392578125,-1.23,0.22,-0.24,1.27
9.24015188217163,-0.62,0.12,-0.25,0.67
9.249161720275879,0.07,0.08,0.21,0.23
9.260358810424805,0.0,0.07,0.37,0.37
9.269109725952148,0.01,0.07,-0.03,0.07
9.28955888748169,0.04,0.14,0.21,0.25
9.29046082496643,-0.19,0.17,0.19,0.31
9.29924988746643,-0.34,0.22,-0.08,0.41
9.31060791015625,-0.24,0.37,-0.21,0.48
9.319492816925049,-0.21,0.53,-0.31,0.64
9.34044885635376,-0.27,0.62,-0.19,0.7
9.341376781463623,-0.3,0.8,0.07,0.85
9.349272727966309,-0.56,0.8,0.25,1.0
9.360682010650635,-0.63,0.7,0.36,1.0
9.369339942932129,-0.78,0.78,0.48,1.2
9.390360832214355,-0.78,0.83,0.32,1.18
9.391294002532959,-0.91,0.84,0.28,1.26
9.399427890777588,-1.19,0.82,0.11,1.44
9.410981893539429,-1.53,0.93,-0.25,1.8
9.419573783874512,-1.64,1.26,-0.43,2.11
9.440964698791504,-1.84,1.35,-0.54,2.34
9.441945791244507,-1.99,1.4,-0.85,2.57
9.44943380355835,-2.24,1.48,-0.9,2.83
9.46082067489624,-2.03,1.88,-1.2,3.01
9.469664812088013,-1.58,2.45,-1.3,3.19
9.49102783203125,-1.38,2.67,-1.16,3.22
9.491958856582642,-1.55,2.5,-0.86,3.06
9.49959683418274,-1.95,2.51,-0.41,3.2
9.51097297668457,-2.24,2.89,-0.03,3.65
9.519720792770386,-2.58,3.43,0.05,4.29
9.540490865707397,-3.21,4.21,-0.24,5.29
9.54138994216919,-3.88,5.41,-1.65,6.85
9.549632787704468,-4.82,6.96,-3.46,9.14
9.56102180480957,-5.55,8.06,-4.11,10.61
9.569562911987305,-8.36,11.45,-3.96,14.71
9.590372800827026,-13.19,18.0,-2.93,22.5
9.591282844543457,-8.6,14.67,-3.56,17.37
9.59977388381958,-6.76,7.91,-1.34,10.49
9.61098575592041,-8.01,7.04,-0.99,10.7
9.619817733764648,-8.64,8.69,-4.37,13.01
9.640495777130127,-8.43,9.91,-4.12,13.64
9.64139699935913,-8.57,9.97,-3.47,13.59
9.64972972869873,-8.61,7.97,-2.96,12.1
9.661170959472656,-7.39,5.37,-1.99,9.34
9.669825792312622,-4.63,3.13,-2.19,6.0
9.690462827682495,-0.41,-1.03,-2.88,3.08
9.691368818283081,2.73,-7.64,-6.23,10.22
9.699802875518799,3.3,-8.98,-6.48,11.55
9.711156845092773,-1.73,-3.78,-5.39,6.8
9.71990180015564,-8.5,0.11,-5.15,9.93
9.740391731262207,-12.91,0.74,-4.61,13.72
9.741290807723999,-12.5,2.29,-3.47,13.17
9.749883890151978,-10.55,0.04,-1.15,10.61
9.761274814605713,-10.16,-6.17,0.14,11.88
9.769969940185547,-7.43,-9.11,-0.68,11.77
9.790066719055176,-5.84,-9.34,-2.41,11.27
9.790966987609863,-7.59,-10.07,-2.79,12.91
9.799933910369873,-7.07,-1.02,-2.53,7.57
9.81133484840393,-5.64,0.11,-1.31,5.79
9.819971799850464,-5.87,-4.59,-1.15,7.53
9.840092658996582,-6.75,-5.63,-1.55,8.92
9.840988874435425,-6.0,-4.41,-1.42,7.58
9.849838733673096,-5.07,-2.74,-1.18,5.88
9.861392974853516,-4.65,-1.85,-1.28,5.16
9.870031833648682,-4.17,-1.96,-1.27,4.77
9.890413761138916,-3.51,-1.77,-0.95,4.04
9.891313791275024,-2.79,-1.11,-0.66,3.07
9.900107860565186,-2.08,-0.17,-0.72,2.2
9.911588668823242,-1.36,1.24,-1.04,2.11
9.920222759246826,-0.75,2.48,-1.05,2.79
9.941008806228638,0.16,4.01,-1.14,4.17
9.941906929016113,1.17,5.72,-1.5,6.02
9.950185775756836,2.35,6.78,-1.33,7.29
9.961756706237793,4.0,7.74,-1.01,8.77
9.970174789428711,6.06,9.04,-0.5,10.89
9.991382837295532,7.42,10.7,-0.1,13.02
9.992324829101562,8.02,19.39,0.31,20.98
10.000189781188965,8.28,22.19,-1.47,23.73
10.011738777160645,14.49,2.35,4.65,15.39
10.020364761352539,15.53,9.81,4.91,19.01
10.041299819946289,16.06,7.63,1.27,17.82
10.042287826538086,17.98,3.69,1.71,18.43
10.050413846969604,19.99,5.24,4.45,21.13
10.061656951904297,18.06,5.67,6.19,19.91
10.070267677307129,15.72,11.5,5.1,20.13
10.091158866882324,14.42,18.02,4.49,23.51
10.092065811157227,13.22,10.75,6.77,18.33
10.100505828857422,11.98,3.6,2.72,12.8
10.111816883087158,0.84,0.94,-5.15,5.3
10.12047290802002,-20.07,4.26,1.44,20.56
10.140635013580322,-17.77,-1.66,15.02,23.32
10.141538858413696,9.04,-0.23,7.42,11.69
10.150473833084106,13.15,2.73,0.2,13.43
10.161738872528076,6.6,2.69,3.37,7.88
10.170389890670776,3.87,2.92,2.07,5.27
10.19040584564209,4.47,0.51,-2.36,5.08
10.191243886947632,4.31,-1.43,-5.71,7.29
10.200442790985107,2.89,-0.49,-5.4,6.14
10.21175765991211,1.29,-0.42,-2.42,2.77
10.220585823059082,1.83,-0.63,0.31,1.96
10.240931987762451,3.01,0.41,1.9,3.58
10.241824865341187,2.72,0.14,1.77,3.24
10.250605821609497,1.6,-0.39,1.81,2.44
10.261800765991211,0.14,0.03,2.31,2.31
10.270608901977539,-0.42,0.07,3.27,3.29
10.291515827178955,-0.14,-0.1,3.22,3.22
10.292433738708496,0.31,-0.19,1.83,1.86
10.300721883773804,1.49,-0.23,-0.62,1.63
10.311869859695435,1.94,-0.19,-2.53,3.19
10.32071590423584,1.91,-0.48,-1.94,2.76
10.341428756713867,2.29,-0.23,-1.46,2.72
10.34233283996582,1.57,0.19,-0.31,1.61
10.350772857666016,0.22,0.28,0.57,0.67
10.361976861953735,-0.6,0.21,0.5,0.8
10.370739936828613,-0.41,0.16,1.14,1.22
10.391794681549072,0.49,0.1,0.74,0.89
10.392752885818481,1.22,0.06,0.12,1.22
10.400891780853271,1.41,-0.02,-0.26,1.43
10.412155866622925,0.85,0.02,-0.41,0.94
10.420791864395142,0.12,0.07,-0.15,0.2
10.44132375717163,-0.19,0.01,0.18,0.26
10.442226886749268,-0.17,-0.03,0.27,0.32
10.450928688049316,-0.03,0.04,0.43,0.43
10.462286949157715,0.21,0.14,0.23,0.34
10.470850944519043,0.08,0.15,-0.27,0.31
10.492140769958496,0.07,0.1,-0.32,0.34
10.493030786514282,0.18,0.02,-0.29,0.34
10.50102186203003,0.13,0.01,-0.09,0.15
10.512563705444336,-0.02,0.09,0.06,0.11
10.521045684814453,-0.32,0.12,-0.22,0.4
10.542145729064941,-0.44,0.16,-0.28,0.54
10.543133735656738,-0.42,0.09,-0.21,0.47
10.551114797592163,-0.4,-0.06,-0.16,0.43
10.562521934509277,-0.32,-0.14,0.05,0.35
10.571124792098999,-0.75,-0.09,0.11,0.76
10.592463970184326,-0.85,0.1,0.39,0.94
10.593442916870117,-0.61,0.2,0.48,0.8
10.601197719573975,-0.44,0.25,0.22,0.55
10.61267900466919,-0.81,0.47,-0.1,0.94
10.621200799942017,-1.55,0.81,-0.4,1.79
10.642146825790405,-2.02,1.04,-0.14,2.27
10.643048763275146,-2.5,1.22,-0.52,2.82
10.651087760925293,-2.52,1.67,-1.21,3.25
10.662545680999756,-2.22,2.08,-1.36,3.33
10.671080827713013,-1.88,2.18,-1.21,3.12
10.692519664764404,-1.66,2.1,-0.96,2.84
10.693477869033813,-1.79,2.43,-1.09,3.2
10.701352834701538,-2.1,3.15,-1.27,3.99
10.712467670440674,-2.17,3.34,-1.19,4.15
10.72125768661499,-1.91,3.37,-1.15,4.04
10.74256682395935,-1.7,3.45,-0.95,3.96
10.743546962738037,-2.0,4.01,-1.46,4.71
10.751458883285522,-2.42,5.37,-1.91,6.19
10.762650966644287,-3.18,7.04,-2.96,8.27
10.771360874176025,-4.43,8.14,-3.61,9.94
10.79214096069336,-5.19,8.52,-3.89,10.7
10.793044805526733,-6.08,8.53,-4.42,11.36
10.801515817642212,-8.24,9.59,-4.75,13.5
10.812710762023926,-14.37,17.0,-4.04,22.62
10.821479797363281,-12.38,17.95,-5.5,22.48
10.842410802841187,-7.24,9.31,-5.6,13.05
10.84331488609314,-8.94,6.63,-3.83,11.77
10.851524829864502,-10.35,8.74,-5.29,14.54
10.862652778625488,-7.4,10.15,-5.69,13.78
10.87144684791565,-7.2,7.65,-4.66,11.49
10.892190933227539,-8.98,4.03,-2.66,10.19
10.893112659454346,-7.12,2.04,-1.97,7.66
10.901553869247437,-1.72,-1.56,-2.84,3.66
10.912718772888184,2.04,-6.39,-5.5,8.67
10.92154598236084,0.36,-4.29,-5.83,7.24
10.941752910614014,-1.81,-1.24,-4.13,4.67
10.942655801773071,-4.1,1.84,-5.09,6.78
10.951713800430298,-8.54,0.64,-4.47,9.66
10.962966918945312,-14.03,-5.21,-2.57,15.18
10.97141981124878,-13.62,-6.74,-1.76,15.29
10.992004871368408,-10.26,-6.82,-1.47,12.4
10.992908954620361,-7.53,-6.2,-1.76,9.91
11.001892805099487,-6.73,-6.52,-2.35,9.66
11.012930870056152,-5.78,-3.75,-3.2,7.59
11.021609783172607,-5.75,-2.53,-2.96,6.94
11.042032718658447,-6.48,-3.72,-2.28,7.81
11.04293179512024,-7.05,-4.55,-1.68,8.55
11.051787853240967,-7.16,-4.42,-1.18,8.49
11.063025951385498,-6.97,-3.53,-0.73,7.84
11.071544885635376,-6.57,-2.65,-0.49,7.1
11.091943740844727,-6.12,-1.79,-0.21,6.37
11.092835903167725,-5.41,-1.41,-0.03,5.59
11.101826667785645,-4.51,-0.84,0.06,4.58
11.112897872924805,-3.58,-0.35,0.08,3.59
11.121744871139526,-2.97,0.31,0.38,3.01
11.141575813293457,-2.65,0.74,0.92,2.9
11.142417907714844,-2.02,1.66,1.05,2.81
11.151881694793701,-0.76,3.53,0.62,3.66
11.162986755371094,1.0,5.88,0.04,5.96
11.171692848205566,2.62,7.53,-0.18,7.97
11.191559791564941,4.26,7.87,0.29,8.95
11.192399978637695,5.93,8.49,0.72,10.38
11.201968669891357,7.79,9.7,0.91,12.47
11.213330745697021,9.36,11.2,1.12,14.63
11.221850872039795,10.54,12.16,0.91,16.11
11.241928815841675,11.69,12.46,1.34,17.13
11.242780685424805,12.68,12.0,3.33,17.77
11.252112865447998,13.07,10.01,5.17,17.25
11.263240814208984,13.21,8.74,5.05,16.62
11.27174186706543,14.97,7.24,5.67,17.56
11.292094707489014,17.13,4.64,7.21,19.15
11.2929368019104,17.91,3.72,8.26,20.07
11.302095890045166,16.35,4.74,8.2,18.89
11.313026905059814,13.98,5.14,8.05,16.93
11.321987867355347,10.81,17.84,7.59,22.19
11.342261791229248,8.29,17.98,7.25,21.08
11.343170881271362,8.14,-2.98,1.87,8.86
11.352180004119873,-3.14,-1.48,-13.16,13.61
11.363476753234863,-23.02,3.99,-4.91,23.87
11.372037887573242,-13.64,0.17,17.98,22.56
11.392582893371582,11.13,3.42,6.85,13.5
11.393458843231201,13.45,6.14,-5.13,15.64
11.402101993560791,8.78,2.22,-5.05,10.36
11.413274765014648,1.93,-1.45,-0.08,2.41
11.422153949737549,2.35,-0.3,3.77,4.45
11.442111015319824,4.79,0.3,3.38,5.87
11.44295883178711,5.43,0.03,-0.54,5.45
11.452333927154541,5.33,-0.53,-2.37,5.85
11.463395833969116,5.56,-0.48,0.05,5.58
11.472033977508545,3.52,0.13,1.65,3.88
11.492759704589844,0.57,0.12,1.84,1.93
11.49366283416748,0.01,-0.17,1.87,1.87
11.502409934997559,0.31,0.08,1.15,1.19
11.5137357711792,-0.11,0.05,0.64,0.65
11.522374868392944,-0.12,-0.19,0.45,0.5
11.543116807937622,0.25,-0.16,0.04,0.29
11.544025897979736,1.1,-0.15,-0.45,1.19
11.552512884140015,2.01,-0.23,-0.61,2.11
11.563822746276855,2.43,-0.13,-0.53,2.49
11.572335720062256,2.11,-0.03,0.11,2.11
11.593334674835205,0.97,-0.01,0.81,1.26
11.594241857528687,-0.23,0.04,1.19,1.21
11.602518796920776,-0.57,0.13,1.37,1.48
11.613702774047852,-0.92,0.15,0.57,1.09
11.622484683990479,-0.51,0.1,0.21,0.56
11.64294981956482,0.07,0.04,-0.26,0.27
11.643847942352295,0.31,0.07,-0.88,0.93
11.6525239944458,0.18,0.04,-0.64,0.66
11.663750886917114,-0.1,-0.01,-0.25,0.26
11.672295808792114,-0.29,-0.01,-0.05,0.29
11.69317078590393,-0.64,0.08,0.09,0.65
11.693995952606201,-0.64,0.16,0.17,0.68
11.70261287689209,-0.32,0.23,-0.13,0.41
11.713805675506592,-0.22,0.22,-0.47,0.56
11.72261095046997,-0.55,0.17,-0.68,0.89
11.743143796920776,-0.99,0.15,-0.98,1.4
11.744046688079834,-1.59,0.11,-0.59,1.69
11.752686977386475,-1.65,0.11,-0.58,1.75
11.764148712158203,-1.17,0.08,-0.03,1.17
11.772709846496582,-1.03,-0.04,0.14,1.04
11.79374074935913,-1.28,0.04,-0.32,1.32
11.794717788696289,-1.39,0.18,-0.25,1.42
11.802751779556274,-1.16,0.29,-0.48,1.28
11.814016819000244,-0.3,0.31,-0.39,0.58
11.822702884674072,0.1,0.14,0.0,0.17
11.843241691589355,0.04,0.17,-0.27,0.32
11.84415078163147,-0.38,0.21,-0.21,0.48
11.852924823760986,-1.11,0.39,-0.39,1.23
11.864242792129517,-1.36,0.74,-0.49,1.62
11.8727388381958,-1.02,1.11,-0.27,1.53
11.89386796951294,-1.02,1.78,0.03,2.05
11.894770860671997,-1.11,1.82,0.18,2.13
11.902920722961426,-1.19,1.85,0.21,2.2
11.914126873016357,-1.23,1.97,-0.03,2.32
11.922855854034424,-1.14,2.33,-0.4,2.62
11.943200826644897,-1.17,2.64,-0.76,2.98
11.944095849990845,-1.02,2.67,-0.8,2.96
11.952892780303955,-0.86,2.78,-0.92,3.05
11.964165687561035,-1.18,2.89,-0.88,3.24
11.972861766815186,-1.83,3.27,-1.15,3.91
11.993029832839966,-2.52,4.14,-1.61,5.1
11.993949890136719,-2.98,5.59,-2.51,6.81
12.002950668334961,-3.88,7.4,-3.39,9.01
12.014343738555908,-4.77,8.88,-4.78,11.15
12.02304482460022,-6.0,10.39,-6.38,13.58
12.043906688690186,-7.47,11.74,-8.0,16.05
12.044830799102783,-12.34,14.43,-7.76,20.51
12.052994728088379,-17.17,17.45,-7.1,25.48
12.064353942871094,-10.2,12.31,-8.1,17.92
12.073102951049805,-6.93,8.35,-5.19,12.02
12.093517780303955,-6.89,7.71,-4.22,11.16
12.094456672668457,-5.21,8.63,-4.45,11.01
12.103221893310547,-4.51,8.52,-4.3,10.55
12.114619731903076,-6.13,6.23,-3.77,9.51
12.123068809509277,-7.39,3.67,-2.66,8.66
12.14419174194336,-4.61,-0.7,-3.16,5.63
12.145089864730835,-0.44,-6.71,-4.07,7.86
12.153243780136108,-0.19,-4.13,-5.8,7.12
12.164540767669678,1.18,-2.04,-3.72,4.4
12.173183917999268,-3.78,-4.95,-5.3,8.17
12.194207668304443,-10.05,-1.97,-5.26,11.51
12.195112705230713,-14.64,-1.21,-2.99,14.99
12.203444004058838,-15.14,-3.96,-1.27,15.7
12.214662790298462,-12.66,-5.92,-1.13,14.02
12.223217010498047,-9.49,-6.43,-1.19,11.52
12.244078874588013,-7.17,-5.76,-1.64,9.34
12.244978904724121,-6.3,-4.57,-2.24,8.09
12.25338888168335,-6.21,-4.12,-2.36,7.81
12.264654874801636,-6.25,-4.11,-2.11,7.77
12.27323293685913,-6.41,-3.9,-1.73,7.7
12.294362783432007,-6.6,-3.74,-1.35,7.7
12.295267820358276,-6.66,-3.32,-1.11,7.52
12.303366661071777,-6.27,-2.77,-1.05,6.93
12.314771890640259,-5.54,-2.25,-0.99,6.06
12.323426723480225,-4.8,-1.68,-0.78,5.14
12.343721866607666,-3.82,-1.01,-0.81,4.03
12.344616889953613,-2.61,-0.88,-0.46,2.79
12.353542804718018,-1.69,-0.66,-0.07,1.81
12.364702701568604,-1.3,0.04,-0.38,1.35
12.373579978942871,-1.17,1.25,-0.75,1.86
12.3941068649292,-0.88,2.72,-0.85,2.98
12.395002841949463,-0.3,4.3,-0.87,4.39
12.403499841690063,0.5,5.69,-1.15,5.82
12.414832830429077,1.73,6.82,-1.05,7.11
12.423597812652588,3.92,7.93,-0.49,8.85
12.444232940673828,6.86,9.41,-0.06,11.64
12.445175886154175,9.33,11.42,-0.02,14.74
12.45357084274292,9.87,13.37,-0.88,16.64
12.465015888214111,10.03,15.24,-1.3,18.29
12.473667860031128,11.61,15.05,-0.05,19.0
12.493597984313965,14.64,12.31,1.01,19.15
12.494500875473022,18.02,8.78,1.26,20.08
12.503663778305054,21.33,4.86,1.16,21.9
12.51504373550415,23.45,3.79,3.11,23.95
12.523714780807495,23.02,5.99,5.12,24.33
12.54457688331604,18.36,6.93,5.11,20.27
12.545477867126465,16.53,5.89,5.36,18.34
12.553934812545776,16.97,5.93,6.05,18.96
12.564864873886108,10.0,22.44,4.98,25.06
12.573627948760986,-1.16,10.99,0.89,11.08
12.594011783599854,-10.76,-7.69,-2.6,13.47
12.594915866851807,-23.74,-1.96,-2.01,23.9
12.603896856307983,-13.78,1.61,9.69,16.92
12.615050792694092,8.36,3.93,7.28,11.76
12.62376880645752,12.6,2.86,-0.48,12.92
12.644838809967041,10.69,2.39,1.8,11.1
12.64573884010315,6.03,4.25,-0.93,7.43
12.6538987159729,2.93,0.66,-3.25,4.42
12.66517186164856,2.27,-0.64,-2.67,3.56
12.673731803894043,2.49,-0.5,-0.91,2.69
12.694633960723877,4.82,-0.47,0.46,4.86
12.695527791976929,5.0,0.25,-0.19,5.0
12.703955888748169,3.17,0.12,1.0,3.32
12.715085983276367,1.92,-0.26,2.16,2.9
12.723931789398193,0.02,0.05,1.95,1.95
12.74438190460205,-0.83,0.14,1.95,2.12
12.74527883529663,-0.53,-0.06,2.6,2.65
12.754148960113525,0.05,0.06,1.81,1.81
12.765341758728027,0.64,0.01,-1.17,1.33
12.773884773254395,1.52,-0.17,-3.11,3.46
12.79438591003418,2.21,-0.11,-1.68,2.77
12.795280933380127,2.38,-0.2,-0.88,2.54
12.80413293838501,1.47,-0.05,-0.18,1.48
12.815204858779907,0.07,0.17,1.24,1.25
12.823814868927002,-0.37,0.17,1.9,1.94
12.844630718231201,-0.43,0.19,1.6,1.66
12.845529794692993,-0.35,0.23,0.67,0.79
12.85418701171875,0.15,0.17,-0.5,0.54
12.865306854248047,0.58,-0.02,-0.94,1.1
12.873965740203857,0.43,-0.03,-0.82,0.92
12.894404888153076,0.05,0.1,-0.56,0.57
12.895305871963501,-0.23,0.13,0.01,0.26
12.904236793518066,-0.32,0.18,0.35,0.5
12.915434837341309,-0.31,0.19,0.27,0.45
12.924142837524414,-0.08,0.21,0.07,0.23
12.944894790649414,-0.1,0.28,-0.24,0.38
12.945796012878418,-0.46,0.39,-0.45,0.75
12.954317808151245,-0.78,0.4,-0.41,0.96
12.96581482887268,-0.99,0.47,-0.46,1.18
12.974236965179443,-0.97,0.45,-0.28,1.1
12.994384765625,-0.68,0.51,-0.22,0.87
12.995284795761108,-0.61,0.46,0.02,0.76
13.004331827163696,-0.91,0.53,-0.14,1.06
13.015633821487427,-1.08,0.5,-0.01,1.19
13.024450778961182,-0.92,0.54,0.08,1.06
13.044476985931396,-0.56,0.69,0.11,0.89
13.045318841934204,-0.36,0.77,-0.07,0.85
13.054470777511597,-0.5,0.87,-0.25,1.03
13.065721988677979,-1.23,0.99,-0.46,1.64
13.074497699737549,-1.93,1.2,-0.16,2.27
13.094899892807007,-2.24,1.36,-0.02,2.62
13.095805883407593,-2.33,1.77,-0.18,2.93
13.10453176498413,-2.55,2.35,-0.46,3.49
13.115588665008545,-2.92,2.56,-0.75,3.95
13.124482870101929,-3.34,2.6,-0.68,4.28
13.14455270767212,-3.76,3.06,-1.16,4.98
13.145402908325195,-3.83,3.6,-2.04,5.63
13.154613971710205,-3.71,3.89,-2.7,6.01
13.165836811065674,-3.53,4.06,-2.96,6.14
13.174389839172363,-3.43,4.09,-2.71,5.98
13.194517850875854,-3.73,5.0,-2.7,6.79
13.195369720458984,-4.58,6.24,-2.95,8.28
13.204716682434082,-5.99,8.59,-4.08,11.23
13.215783834457397,-10.11,14.28,-4.94,18.18
13.224751949310303,-10.79,14.78,-5.33,19.05
13.244252681732178,-8.92,15.52,-6.01,18.88
13.245101928710938,-10.32,15.0,-5.33,18.97
13.254697799682617,-11.2,9.81,-4.58,15.57
13.265904903411865,-10.94,9.78,-5.69,15.73
13.274590969085693,-10.27,12.49,-7.29,17.73
13.295001983642578,-9.95,12.0,-6.36,16.83
13.295901775360107,-10.77,9.53,-5.11,15.26
13.304825782775879,-9.32,6.1,-3.86,11.78
13.316059827804565,-4.65,1.46,-2.61,5.52
13.324737787246704,-0.59,-4.96,-3.77,6.25
13.344759941101074,0.74,-4.71,-5.05,6.94
13.345597743988037,2.42,-2.14,-3.68,4.89
13.354893684387207,0.62,-1.1,-4.6,4.77
13.366015911102295,-4.71,0.28,-4.65,6.62
13.3747239112854,-10.76,-2.18,-3.35,11.47
13.395789861679077,-14.44,-5.74,-2.4,15.72
13.39671778678894,-13.09,-8.21,-1.75,15.55
13.405022859573364,-10.23,-9.13,-1.59,13.8
13.416100978851318,-7.97,-7.17,-2.07,10.91
13.424896717071533,-5.98,-4.27,-2.02,7.62
13.445059776306152,-5.76,-4.99,-2.3,7.96
13.445955753326416,-6.51,-5.45,-2.38,8.81
13.45503282546997,-6.85,-5.97,-1.82,9.26
13.466241836547852,-6.52,-6.27,-1.38,9.15
13.474913835525513,-6.37,-6.12,-1.01,8.89
13.49558401107788,-6.43,-5.74,-1.01,8.67
13.496506690979004,-6.48,-5.39,-1.13,8.5
13.505151748657227,-6.19,-4.58,-1.01,7.76
13.51619577407837,-5.53,-4.02,-0.77,6.87
13.524919986724854,-4.74,-3.12,-0.74,5.72
13.545230865478516,-3.94,-2.0,-0.43,4.43
13.546105861663818,-2.85,-0.42,-0.36,2.9
13.555069923400879,-2.1,1.42,-0.39,2.56
13.566309928894043,-1.43,3.27,-0.68,3.63
13.57499384880066,-0.62,5.16,-0.94,5.28
13.595139980316162,0.32,7.37,-1.64,7.55
13.595996856689453,1.81,9.82,-2.23,10.23
13.605373859405518,4.15,11.66,-1.96,12.53
13.616617679595947,6.8,13.85,-1.61,15.51
13.62523078918457,8.94,21.06,-1.86,22.95
13.645401000976562,9.31,35.62,-5.84,37.27
13.646304845809937,13.95,6.67,-2.8,15.71
13.655386924743652,20.31,4.53,0.52,20.81
13.666473865509033,23.18,8.49,0.74,24.69
13.675209999084473,24.09,4.12,0.55,24.44
13.69543170928955,23.07,4.29,1.35,23.5
13.696340799331665,22.29,9.63,4.92,24.77
13.705421924591064,18.96,14.97,4.41,24.55
13.716574668884277,16.01,12.91,5.37,21.25
13.725133895874023,13.91,10.45,6.55,18.59
13.744915962219238,11.66,6.11,0.07,13.16
13.74576473236084,-7.17,5.82,-8.25,12.38
13.755505800247192,-23.31,0.27,9.62,25.21
13.76641583442688,-1.13,-3.05,15.05,15.39
13.775216817855835,15.56,6.62,-1.94,17.02
13.795663833618164,10.82,5.46,-1.47,12.2
13.79651689529419,3.61,-0.73,3.0,4.75
13.80565881729126,3.84,-1.02,-0.66,4.02
13.816747665405273,5.97,-1.8,-4.15,7.49
13.825411796569824,5.77,-0.23,-2.79,6.41
13.845736980438232,3.7,0.35,0.34,3.73
13.846633911132812,3.81,-0.79,1.8,4.28
13.855748891830444,4.54,-0.37,1.08,4.68
13.866886854171753,2.68,0.03,1.25,2.95
13.875468730926514,-0.09,0.03,3.16,3.16
13.896190881729126,-1.41,0.13,4.22,4.45
13.897093772888184,-1.2,0.05,2.55,2.81
13.905871868133545,0.28,0.09,-0.38,0.48
13.91689395904541,1.27,0.07,-2.43,2.74
13.925548791885376,2.03,-0.45,-2.84,3.51
13.946030855178833,3.2,-0.35,-2.17,3.88
13.94692587852478,2.2,0.18,-0.51,2.26
13.956012725830078,-0.22,0.1,0.76,0.79
13.967020988464355,-0.87,0.16,1.62,1.84
13.975634813308716,0.09,0.3,1.32,1.35
13.995934009552002,1.05,0.21,0.43,1.15
13.99682879447937,1.22,0.11,-0.33,1.26
14.006012916564941,0.83,0.02,-0.64,1.04
14.016957759857178,0.07,-0.03,-0.43,0.43
14.025648832321167,-0.45,0.07,-0.23,0.51
14.045707702636719,0.15,0.08,0.04,0.17
14.046549797058105,0.8,-0.02,0.1,0.8
14.05610466003418,0.64,0.1,-0.31,0.71
14.066903829574585,0.39,0.1,-0.33,0.52
14.075665950775146,0.01,0.13,-0.17,0.21
14.095425844192505,-0.48,0.13,-0.25,0.55
14.09626293182373,-0.49,0.07,-0.48,0.68
14.106054782867432,-0.33,0.13,-0.72,0.8
14.11696195602417,-0.4,0.2,-0.6,0.74
14.125821828842163,-0.67,0.32,-0.31,0.8
14.146057844161987,-1.38,0.54,0.27,1.5
14.146960735321045,-1.97,0.61,0.29,2.08
14.156139850616455,-1.79,0.68,0.45,1.96
14.166884899139404,-1.34,0.61,0.36,1.51
14.175776958465576,-1.12,0.58,-0.15,1.27
14.196078777313232,-1.15,0.69,-0.45,1.41
14.196908950805664,-1.8,0.88,-0.4,2.04
14.206355810165405,-2.51,0.94,-0.19,2.68
14.217041015625,-2.81,0.87,0.08,2.94
14.225943803787231,-2.92,1.06,0.0,3.1
14.245359897613525,-2.75,1.71,-0.71,3.31
14.24620771408081,-2.54,2.12,-1.09,3.48
14.256454944610596,-2.72,2.07,-1.05,3.57
14.267155885696411,-2.59,2.23,-1.14,3.6
14.276010990142822,-2.37,2.7,-1.2,3.78
14.295831680297852,-2.27,3.19,-1.8,4.3
14.296673774719238,-1.98,3.45,-2.09,4.49
14.30646800994873,-1.94,3.31,-1.84,4.25
14.31728482246399,-2.07,3.42,-1.47,4.25
14.326034784317017,-2.81,4.19,-1.31,5.21
14.345800876617432,-3.71,5.47,-1.62,6.8
14.346636772155762,-5.0,7.2,-3.42,9.4
14.35651683807373,-6.08,8.63,-4.94,11.65
14.367289781570435,-6.87,10.15,-6.1,13.69
14.376123905181885,-11.36,15.22,-6.22,19.98
14.396467685699463,-14.69,19.29,-5.77,24.92
14.397316932678223,-10.04,15.36,-7.09,19.67
14.406413793563843,-8.12,8.18,-4.77,12.47
14.417374849319458,-10.47,7.44,-3.04,13.19
14.426132678985596,-11.07,11.48,-4.54,16.58
14.44642186164856,-8.03,11.05,-4.47,14.37
14.447272777557373,-7.44,7.85,-2.86,11.18
14.456783771514893,-7.5,5.44,-2.29,9.54
14.467522859573364,-3.89,2.25,-2.9,5.34
14.476256847381592,0.05,-3.71,-4.96,6.19
14.496163845062256,0.85,-5.46,-6.03,8.17
14.49700379371643,1.32,-3.13,-3.71,5.03
14.5067138671875,-2.01,0.72,-3.93,4.47
14.517517805099487,-8.52,-2.15,-3.78,9.56
14.526410818099976,-13.83,-3.46,-2.7,14.5
14.545985698699951,-15.22,-6.81,-1.67,16.75
14.546846866607666,-11.9,-7.99,-1.46,14.4
14.556814670562744,-8.14,-4.91,-1.17,9.57
14.567461967468262,-6.2,-4.63,-1.06,7.81
14.576390743255615,-5.98,-5.52,-1.85,8.34
14.596713781356812,-6.59,-5.4,-2.27,8.81
14.597554683685303,-6.98,-5.11,-2.33,8.95
14.607088804244995,-6.96,-4.69,-2.14,8.66
14.617839813232422,-7.16,-4.42,-1.65,8.57
14.626616954803467,-7.03,-4.16,-1.11,8.24
14.647040843963623,-6.4,-3.71,-0.67,7.42
14.647948741912842,-5.36,-3.14,-0.6,6.24
14.657135009765625,-4.55,-2.43,-0.27,5.16
14.667836666107178,-3.68,-1.75,-0.46,4.1
14.676723957061768,-2.47,-1.21,-0.47,2.79
14.696662902832031,-1.6,-1.23,0.16,2.02
14.69753885269165,-0.87,-0.95,0.6,1.42
14.707037925720215,-0.05,0.13,0.27,0.3
14.717712879180908,0.75,1.74,-0.39,1.93
14.726534843444824,1.33,3.59,-0.39,3.84
14.746359825134277,2.01,5.12,0.06,5.5
14.747195720672607,3.14,6.16,-0.1,6.91
14.757178783416748,4.89,7.3,0.18,8.78
14.76793885231018,6.37,8.63,0.59,10.74
14.776683807373047,7.02,10.23,0.84,12.43
14.796665668487549,7.48,12.23,0.82,14.35
14.79751181602478,8.4,13.95,0.58,16.29
14.807271003723145,10.02,14.91,1.03,17.99
14.818118810653687,12.4,14.27,2.07,19.01
14.826849937438965,15.23,11.85,2.03,19.4
14.84680986404419,19.09,7.61,1.94,20.64
14.847662925720215,22.85,3.48,3.48,23.37
14.8573157787323,24.03,4.22,5.82,25.08
14.868030786514282,21.85,8.09,6.16,24.1
14.876855850219727,17.8,8.41,5.47,20.43
14.897012710571289,14.96,16.04,6.5,22.87
14.897911787033081,7.61,24.23,2.77,25.54
14.907399892807007,0.34,-0.86,-2.64,2.79
14.918292999267578,-13.53,-5.51,-10.46,17.96
14.927148818969727,-28.25,0.37,1.82,28.31
14.94745397567749,-9.16,1.21,15.13,17.72
14.94835090637207,9.32,3.71,2.94,10.45
14.957363843917847,11.26,4.3,-0.77,12.07
14.968343734741211,8.77,2.67,1.62,9.3
14.977077960968018,4.81,-0.22,0.47,4.83
14.997952938079834,4.48,-0.29,-1.67,4.78
14.998873710632324,4.5,-0.32,-2.0,4.93
15.007571697235107,5.7,-0.4,0.03,5.71
15.018297672271729,5.07,-0.29,-0.5,5.1
15.027442932128906,4.77,-0.2,0.64,4.81
15.04780387878418,3.34,-0.35,1.36,3.62
15.048707008361816,0.48,-0.06,1.81,1.87
15.057382822036743,-0.64,0.02,2.66,2.73
15.068346977233887,-0.22,-0.05,2.75,2.75
15.077349662780762,0.51,-0.15,2.44,2.49
15.097566843032837,1.14,-0.08,0.47,1.23
15.098464012145996,1.86,0.05,-1.56,2.42
15.107747793197632,1.75,-0.22,-1.18,2.12
15.118541717529297,2.07,-0.12,-1.1,2.34
15.127350807189941,2.56,0.17,-0.67,2.65
15.147196769714355,1.28,0.12,-0.22,1.3
15.14803171157837,0.02,0.13,0.31,0.33
15.15758466720581,-0.13,0.3,1.16,1.2
15.168537855148315,-0.68,0.24,1.04,1.26
15.177536964416504,-0.53,0.19,0.55,0.78
15.197629928588867,0.01,0.17,-0.2,0.26
15.198510885238647,0.32,0.12,-0.87,0.93
15.20776081085205,0.75,-0.02,-0.66,0.99
15.218384742736816,0.45,-0.07,-0.42,0.61
15.22780466079712,-0.15,0.05,-0.12,0.19
15.247278690338135,-0.72,0.07,0.14,0.73
15.24807071685791,-0.68,0.07,0.13,0.69
15.257806777954102,-0.44,0.18,-0.09,0.48
15.268706798553467,-0.47,0.21,-0.56,0.76
15.277768850326538,-0.75,0.17,-0.72,1.05
15.296839714050293,-0.93,0.17,-0.46,1.05
15.297688007354736,-1.07,0.11,-0.49,1.18
15.307830810546875,-1.06,0.06,-0.28,1.09
15.318690776824951,-0.93,0.04,-0.04,0.93
15.327596664428711,-0.78,0.26,-0.35,0.89
15.346688747406006,-0.51,0.5,-0.05,0.71
15.347470760345459,-0.28,0.48,0.23,0.6
15.357807874679565,-0.18,0.72,0.42,0.85
15.368710994720459,-0.65,0.94,0.6,1.29
15.377607822418213,-1.26,0.95,0.64,1.7
15.39696979522705,-1.83,1.15,0.36,2.19
15.397819995880127,-2.16,1.33,-0.01,2.53
15.407952785491943,-2.14,1.2,-0.03,2.45
15.418684005737305,-1.93,1.24,-0.41,2.33
15.427713871002197,-1.83,1.74,-1.21,2.8
15.447078704833984,-2.21,2.38,-1.58,3.61
15.447933673858643,-2.52,2.54,-1.39,3.83
15.457921981811523,-2.85,2.54,-0.91,3.92
15.468857765197754,-2.96,2.99,-1.28,4.39
15.477807998657227,-2.88,3.56,-1.72,4.89
15.497564792633057,-2.87,3.96,-2.34,5.42
15.498406887054443,-3.01,4.03,-2.33,5.54
15.508022785186768,-3.16,4.08,-2.02,5.54
15.518971920013428,-3.67,4.65,-2.12,6.29
15.528075695037842,-4.45,6.03,-2.75,7.98
15.54766583442688,-5.57,8.62,-4.84,11.34
15.54857087135315,-6.91,10.42,-6.19,13.95
15.558448791503906,-11.15,14.93,-6.32,19.67
15.569390773773193,-13.54,17.65,-6.27,23.11
15.578260898590088,-9.68,15.55,-6.89,19.56
15.598179817199707,-7.95,10.18,-5.38,13.99
15.599087715148926,-9.73,8.68,-5.42,14.12
15.60825777053833,-10.74,11.4,-4.78,16.37
15.619229793548584,-9.15,11.05,-5.54,15.37
15.628485679626465,-10.1,7.81,-4.67,13.59
15.647950887680054,-11.2,5.32,-3.81,12.97
15.648819923400879,-8.21,2.45,-2.26,8.86
15.658299922943115,-2.74,-3.24,-1.3,4.43
15.669244766235352,-0.13,-6.76,-5.94,8.99
15.67859172821045,2.52,-5.08,-4.18,7.04
15.69787883758545,0.95,-2.28,-5.47,6.0
15.69873571395874,-5.88,-0.55,-5.14,7.82
15.708428859710693,-11.52,-0.34,-2.87,11.87
15.719302892684937,-15.81,-4.73,-1.22,16.54
15.728593826293945,-14.52,-8.55,-1.25,16.89
15.7481107711792,-10.62,-8.64,-1.36,13.75
15.749034881591797,-7.71,-5.36,-1.45,9.5
15.758312702178955,-5.78,-3.63,-1.42,6.97
15.769267797470093,-5.43,-4.18,-1.67,7.05
15.77845573425293,-5.8,-4.52,-1.57,7.51
15.798105716705322,-6.25,-4.88,-1.19,8.01
15.798978805541992,-6.37,-4.41,-0.71,7.78
15.808499813079834,-6.49,-4.13,-0.27,7.69
15.81916880607605,-6.35,-3.61,0.03,7.3
15.82833480834961,-5.87,-3.03,0.04,6.6
15.848309993743896,-5.02,-2.65,-0.18,5.67
15.849185943603516,-4.17,-1.49,-0.1,4.42
15.858568668365479,-2.98,-0.81,0.36,3.1
15.869382858276367,-1.61,-0.83,0.76,1.96
15.878358840942383,-0.98,-0.22,0.2,1.02
15.898470878601074,-0.95,1.11,-0.43,1.52
15.899369716644287,-0.91,3.22,-0.81,3.44
15.908721923828125,-0.01,5.55,-0.66,5.58
15.919622898101807,1.26,7.33,-0.8,7.48
15.92897891998291,2.68,8.53,-0.87,8.98
15.94875979423523,4.97,9.68,0.04,10.88
15.949673891067505,7.08,11.26,0.3,13.3
15.95905089378357,7.63,12.99,-0.32,15.06
15.969998836517334,7.27,14.7,-0.73,16.41
15.979055881500244,8.49,15.48,0.58,17.66
15.99794888496399,12.49,13.44,1.68,18.42
15.998795986175537,16.37,10.12,2.63,19.42
16.008994817733765,19.33,6.54,3.12,20.64
16.019648790359497,22.04,5.15,4.43,23.06
16.028589725494385,24.36,6.97,6.43,26.14
16.048638820648193,21.97,8.09,6.86,24.39
16.049510955810547,17.07,5.98,7.06,19.41
16.05878186225891,16.52,4.99,7.51,18.82
16.069660663604736,11.9,25.69,6.34,29.01
16.078985691070557,2.98,13.91,1.4,14.29
16.09837770462036,-6.26,-6.97,-7.64,12.08
16.099209785461426,-20.49,-1.88,-8.91,22.42
16.109079837799072,-20.06,2.2,14.36,24.76
16.11964988708496,7.4,5.26,12.08,15.11
16.128947734832764,13.8,5.98,-2.0,15.17
16.14856481552124,11.36,2.53,-4.67,12.54
16.14942479133606,5.38,-0.89,-1.89,5.77
16.159076690673828,3.72,-0.03,1.54,4.02
16.17004680633545,4.4,0.62,5.13,6.78
16.179009914398193,4.76,-0.94,1.79,5.17
16.19868779182434,6.31,-1.09,-1.62,6.6
16.19960594177246,5.21,-0.45,-0.41,5.24
16.20905089378357,1.27,0.11,2.5,2.8
16.21983289718628,0.06,-0.06,1.46,1.46
16.22922372817993,0.19,0.07,1.68,1.69
16.249605894088745,1.54,0.22,2.23,2.71
16.25049591064453,3.54,0.06,-0.7,3.6
16.259183883666992,3.69,-0.19,-1.02,3.83
16.270059823989868,2.84,-0.19,-0.33,2.86
16.27989101409912,1.68,0.02,0.31,1.7
16.300107955932617,0.12,0.07,0.65,0.66
16.301037788391113,-0.1,0.25,0.35,0.44
16.30916690826416,0.25,0.23,0.04,0.34
16.320100784301758,0.83,0.16,-0.3,0.89
16.329670906066895,1.2,0.01,-0.22,1.22
16.349897861480713,0.83,-0.06,0.01,0.83
16.35087776184082,-0.44,-0.04,0.11,0.45
16.359264850616455,-0.85,0.11,0.35,0.92
16.370195865631104,-0.26,0.12,0.56,0.62
16.379570960998535,0.09,0.05,0.48,0.49
16.399420738220215,0.57,0.1,0.23,0.62
16.400309801101685,0.93,0.05,0.25,0.96
16.409295797348022,0.42,0.03,0.45,0.61
16.42017698287964,-0.33,-0.02,0.12,0.35
16.429438829421997,-0.75,0.16,0.35,0.84
16.4492449760437,-1.4,0.45,0.67,1.61
16.450140953063965,-1.75,0.66,0.41,1.91
16.459397792816162,-1.07,0.69,0.61,1.41
16.4703528881073,-0.38,0.35,0.41,0.65
16.47960090637207,-0.12,0.09,0.04,0.15
16.49907875061035,0.06,0.09,-0.37,0.38
16.499969005584717,0.23,0.22,-0.64,0.71
16.509540796279907,0.31,0.35,-0.79,0.91
16.520245790481567,0.48,0.31,-0.73,0.92
16.529627799987793,0.55,0.21,-0.18,0.61
16.548995971679688,0.66,-0.06,-0.16,0.68
16.54982900619507,0.64,-0.28,0.09,0.7
16.55941390991211,0.52,-0.36,0.22,0.66
16.570286750793457,0.44,-0.23,-0.2,0.53
16.57981586456299,0.47,0.0,-0.62,0.77
16.599764823913574,0.38,0.16,-0.95,1.03
16.60064697265625,0.14,0.17,-1.01,1.03
16.6095929145813,-0.48,0.06,-1.15,1.24
16.620566844940186,-1.41,0.17,-1.21,1.86
16.62992572784424,-1.9,0.27,-1.26,2.29
16.65038299560547,-1.75,0.06,-1.29,2.17
16.651282787322998,-1.36,-0.37,-1.3,1.91
16.65969467163086,-1.2,-0.77,-1.61,2.15
16.670469760894775,-0.92,-0.77,-2.28,2.57
16.68022394180298,-1.13,-0.06,-3.21,3.4
16.700371742248535,-2.24,1.83,-4.0,4.93
16.701273918151855,-3.13,4.43,-3.78,6.61
16.70983600616455,-2.52,5.62,-2.63,6.69
16.720587730407715,-0.96,4.01,-1.99,4.57
16.730275869369507,-0.47,2.28,-2.96,3.76
16.75001287460327,-0.34,2.26,-4.53,5.07
16.750916957855225,-0.58,3.53,-5.96,6.95
16.75996971130371,-0.98,3.98,-5.98,7.24
16.770689010620117,-0.55,3.4,-6.76,7.58
16.780052661895752,-0.49,3.37,-7.08,7.85
16.800006866455078,-0.46,3.88,-7.3,8.27
16.800931930541992,-0.31,4.8,-7.13,8.6
16.809935808181763,-0.02,5.02,-6.71,8.38
16.820825815200806,-1.07,3.24,-5.99,6.89
16.830206871032715,-2.08,1.53,-5.64,6.2
16.850204944610596,-2.39,0.35,-5.39,5.9
16.85111093521118,-3.24,-2.6,-5.62,6.98
16.85989475250244,-5.26,-5.76,-6.15,9.93
16.870820999145508,-7.03,-6.01,-5.28,10.64
16.880242824554443,-6.5,-3.76,-3.12,8.13
16.900161743164062,-9.42,-2.26,-2.9,10.11
16.901063919067383,-12.06,-4.13,-1.67,12.85
16.91006588935852,-12.39,-5.07,-0.35,13.39
16.92082691192627,-11.58,-3.99,0.39,12.25
16.930322885513306,-10.38,-3.09,0.44,10.83
16.950246810913086,-9.05,-2.96,0.93,9.56
16.951146841049194,-7.99,-2.55,1.75,8.56
16.96009588241577,-7.1,-1.74,2.18,7.62
16.971008777618408,-6.29,-0.54,2.31,6.72
16.9806489944458,-5.48,0.33,2.67,6.1
17.000333786010742,-4.74,0.47,3.19,5.73
17.001227855682373,-3.42,0.12,3.09,4.61
17.01012372970581,-1.52,-0.37,2.3,2.78
17.020840883255005,-0.98,1.94,2.39,3.23
17.03060293197632,-1.14,4.24,2.66,5.13
17.04959487915039,-2.16,3.05,3.72,5.27
17.050432682037354,-3.09,1.45,4.76,5.85
17.059793949127197,-3.86,1.65,4.92,6.46
17.071070671081543,-4.53,1.71,5.07,7.01
17.079874992370605,-4.86,1.49,5.17,7.25
17.099876880645752,-4.58,1.5,5.12,7.03
17.100732803344727,-4.01,1.99,4.88,6.62
17.1098690032959,-3.69,2.58,4.69,6.5
17.120920658111572,-3.37,2.79,4.6,6.34
17.130019664764404,-2.7,2.77,4.68,6.07
17.15007972717285,-1.69,2.68,4.64,5.61
17.15098786354065,-1.07,3.06,4.33,5.4
17.160022735595703,-0.78,3.81,4.11,5.65
17.17116379737854,-0.21,3.88,3.93,5.52
17.180046796798706,0.75,3.17,3.75,4.96
17.20053482055664,1.89,2.44,3.49,4.65
17.20144486427307,2.71,1.76,3.16,4.51
17.21070098876953,3.08,1.59,2.55,4.3
17.22140598297119,3.43,1.8,2.2,4.45
17.230978965759277,3.7,1.89,2.02,4.61
17.25072479248047,3.67,1.62,1.68,4.34
17.251616954803467,3.54,0.99,1.41,3.93
17.260050773620605,3.15,0.53,1.07,3.36
17.27137589454651,2.75,-0.1,0.75,2.85
17.280136823654175,2.31,0.16,0.19,2.32
17.300610780715942,1.53,0.52,-0.09,1.61
17.301517963409424,0.05,0.76,-0.46,0.88
17.310219764709473,-0.96,-0.06,-0.42,1.04
17.3212788105011,-1.63,-0.99,-0.47,1.96
17.330286979675293,-2.16,-1.62,-0.21,2.7
17.350595951080322,-2.23,-1.86,-0.18,2.9
17.351423740386963,-2.23,-1.92,-0.24,2.95
17.36026096343994,-2.28,-1.58,-0.48,2.81
17.371580839157104,-2.66,-1.18,-0.5,2.95
17.380403995513916,-2.81,-1.05,-0.12,3.0
17.401212692260742,-2.36,-1.05,0.21,2.59
17.40211772918701,-1.72,-0.66,0.07,1.84
17.410295009613037,-1.66,-0.5,0.47,1.79
17.421432971954346,-1.57,-0.87,0.77,1.95
17.430343866348267,-1.87,-1.26,1.23,2.56
17.45081377029419,-2.75,-1.86,1.96,3.85
17.451716899871826,-3.3,-0.3,2.68,4.26
17.460289001464844,-1.9,11.18,2.83,11.68
17.47150993347168,-3.91,2.64,4.66,6.63
17.480369806289673,-1.08,-3.65,5.62,6.78
17.500715732574463,2.11,2.56,5.6,6.5
17.501619815826416,3.63,2.23,4.79,6.41
17.510376930236816,-1.34,3.48,2.13,4.29
17.521897792816162,-10.09,4.49,-0.6,11.06
17.53042697906494,-7.27,-0.13,2.19,7.59
17.55030584335327,4.51,-0.76,2.92,5.42
17.5511417388916,5.65,-0.78,0.73,5.75
17.56028175354004,2.74,-0.93,0.11,2.89
17.571398735046387,1.74,0.04,-1.04,2.02
17.580434799194336,0.8,0.12,-3.21,3.31
17.600252866744995,0.74,-0.25,-1.87,2.02
17.601085662841797,0.6,-0.18,0.03,0.62
17.611138820648193,0.03,0.23,0.45,0.5
17.621765851974487,-0.74,0.14,0.7,1.02
17.63145399093628,-1.31,0.06,0.63,1.45
17.6506609916687,-1.07,0.2,-0.1,1.09
17.651497840881348,-0.81,0.22,-0.97,1.28
17.660560846328735,-0.6,0.3,-1.52,1.66
17.671886920928955,-0.57,0.13,-1.61,1.71
17.68062973022461,0.13,0.03,-0.83,0.84
17.70078468322754,-0.09,0.2,-0.08,0.23
17.70170283317566,-1.23,0.1,0.26,1.26
17.710758686065674,-0.92,-0.02,0.36,0.98
17.72185468673706,0.3,0.14,0.24,0.4
17.73089599609375,0.87,-0.05,0.32,0.92
17.75111675262451,0.98,-0.11,0.07,0.98
17.75203275680542,0.63,0.07,-0.26,0.68
17.76065683364868,0.2,0.03,-0.07,0.21
17.7719407081604,0.12,0.11,0.01,0.16
17.78079891204834,-0.07,-0.14,0.36,0.39
17.801020860671997,-0.99,0.13,0.12,1.0
17.801867961883545,-0.85,0.14,-0.01,0.86
17.81073570251465,-0.96,-0.02,-0.06,0.96
17.822126865386963,-1.04,0.12,-0.36,1.1
17.83089780807495,-0.41,0.06,-0.2,0.46
17.850820779800415,-0.09,-0.16,-0.19,0.26
17.851661682128906,-0.18,-0.06,-0.15,0.24
17.86083483695984,-0.11,-0.07,0.06,0.14
17.87217688560486,0.12,-0.09,0.25,0.29
17.881049871444702,0.21,0.12,0.33,0.4
17.900482892990112,-0.03,0.13,0.24,0.27
17.901248931884766,-0.26,0.13,0.09,0.3
17.911020755767822,-0.72,0.27,0.12,0.77
17.922086715698242,-0.64,0.24,-0.16,0.7
17.93097686767578,-0.29,0.1,-0.08,0.31
17.950934886932373,-0.58,0.09,0.05,0.58
17.95178484916687,-0.63,0.12,-0.18,0.66
17.960944890975952,-0.48,0.03,0.03,0.48
17.972086906433105,-0.5,0.03,0.03,0.5
17.981016874313354,-0.69,0.08,-0.17,0.71
18.001328945159912,-0.49,0.07,-0.13,0.51
18.00222682952881,-0.23,0.15,-0.12,0.29
18.011258840560913,-0.21,0.09,-0.13,0.26
18.02229595184326,-0.42,0.13,-0.24,0.5
18.031279802322388,-0.37,0.19,-0.18,0.45
18.05139398574829,-0.43,0.33,-0.8,0.96
18.05228900909424,-0.52,0.27,-1.16,1.29
18.061184883117676,-0.57,0.06,-0.69,0.89
18.072629928588867,-1.27,0.38,-1.21,1.79
18.081360816955566,-1.82,0.88,-1.35,2.43
18.101810932159424,-2.1,1.07,-1.14,2.61
18.102707862854004,-2.37,1.23,-0.92,2.82
18.111506938934326,-2.66,1.1,-0.67,2.95
18.122342824935913,-2.71,1.15,-0.66,3.01
18.131479740142822,-2.58,1.38,-0.69,3.0
18.151344776153564,-2.39,1.5,-1.06,3.01
18.15223979949951,-2.12,1.68,-0.85,2.83
18.161207675933838,-2.15,1.85,-0.75,2.93
18.172650814056396,-2.34,2.31,-0.73,3.36
18.181350708007812,-3.01,3.24,-1.59,4.69
18.202561855316162,-3.42,3.63,-1.68,5.26
18.20346188545227,-2.94,3.6,-1.46,4.87
18.21153974533081,-3.27,4.01,-1.26,5.32
18.222646713256836,-3.78,4.53,-1.47,6.08
18.231507778167725,-3.42,4.3,-1.51,5.69
18.252301692962646,-3.08,4.13,-2.15,5.58
18.25326681137085,-3.19,4.4,-2.89,6.15
18.261550903320312,-3.36,5.34,-3.51,7.21
18.272785663604736,-4.04,5.48,-3.57,7.68
18.281559944152832,-6.46,8.03,-3.84,10.99
18.30317497253418,-7.08,11.07,-2.6,13.39
18.30416488647461,-3.68,9.85,-2.85,10.89
18.311523914337158,-1.66,7.87,-2.36,8.38
18.322975873947144,-1.54,6.12,-2.02,6.62
18.331554889678955,-3.92,4.72,-3.04,6.84
18.352182865142822,-6.08,3.11,-2.06,7.13
18.353087902069092,-6.27,2.52,-1.24,6.87
18.36154580116272,-4.19,2.27,-1.37,4.95
18.372795820236206,-1.9,0.01,-1.72,2.56
18.381603717803955,-2.86,-3.42,-3.22,5.49
18.402098894119263,-7.12,-3.06,-3.74,8.6
18.403005838394165,-9.27,-1.39,-2.07,9.59
18.411614894866943,-12.19,1.36,-1.4,12.34
18.422881841659546,-12.87,-0.91,1.19,12.95
18.431691884994507,-11.53,-4.3,2.46,12.54
18.451928853988647,-10.04,-5.2,1.96,11.47
18.45283579826355,-8.83,-4.16,1.47,9.87
18.46168088912964,-8.69,-3.17,1.09,9.31
18.472802877426147,-8.83,-3.02,0.89,9.37
18.481674671173096,-8.66,-2.78,0.68,9.12
18.50183868408203,-7.92,-2.19,0.43,8.22
18.502684831619263,-7.05,-1.62,0.36,7.24
18.511785984039307,-6.36,-1.41,0.34,6.52
18.523093700408936,-5.44,-1.42,-0.01,5.62
18.531832695007324,-4.48,-1.15,-0.41,4.64
18.55183696746826,-3.72,-0.39,-0.48,3.77
18.55274772644043,-3.21,0.14,-0.17,3.21
18.561723709106445,-3.33,0.26,0.14,3.34
18.572985887527466,-3.73,0.02,0.36,3.74
18.58196783065796,-3.81,0.38,0.39,3.84
18.601964950561523,-3.55,0.97,0.35,3.69
18.602767944335938,-3.17,1.0,0.35,3.34
18.61189079284668,-3.08,0.9,0.15,3.21
18.623159885406494,-3.18,1.18,-0.06,3.39
18.631924867630005,-3.17,1.55,-0.07,3.52
18.65178394317627,-2.74,2.19,0.13,3.51
18.652615785598755,-2.05,2.58,0.27,3.3
18.661913871765137,-1.44,3.07,0.42,3.41
18.673019886016846,-0.88,3.44,0.66,3.61
18.68193769454956,-0.13,4.11,0.55,4.14
18.702292919158936,0.68,5.41,0.53,5.47
18.703190803527832,1.63,6.46,0.86,6.71
18.712122917175293,3.17,11.59,1.55,12.11
18.723570823669434,2.86,20.55,0.36,20.75
18.732197761535645,7.46,2.39,3.27,8.48
18.75305986404419,12.75,-0.15,5.36,13.83
18.753978729248047,11.9,7.74,4.75,14.96
18.762215852737427,9.55,7.81,3.68,12.87
18.773598670959473,8.92,4.13,3.52,10.44
18.782161712646484,9.45,4.42,3.52,11.01
18.803001880645752,10.81,4.43,4.32,12.45
18.803913831710815,11.39,4.67,4.96,13.27
18.812323808670044,10.97,6.44,4.72,13.56
18.823635816574097,11.03,7.52,4.49,14.08
18.832271814346313,10.77,7.68,4.51,13.97
18.853306770324707,9.66,8.01,3.31,12.97
18.854224681854248,11.65,5.34,0.29,12.81
18.862287998199463,5.55,2.11,-5.05,7.79
18.873406887054443,-12.68,3.68,-2.07,13.36
18.88233184814453,-12.02,-1.58,7.6,14.3
18.902491807937622,4.66,-0.19,7.18,8.56
18.903397798538208,8.11,3.59,0.5,8.88
18.912315845489502,4.57,1.77,0.03,4.9
18.92353391647339,1.62,1.84,0.8,2.57
18.932518005371094,0.83,0.58,-0.26,1.04
18.952880859375,1.0,-0.02,-0.9,1.34
18.953794956207275,0.78,0.24,-2.06,2.21
18.962464809417725,0.83,-1.05,-3.16,3.43
18.97364377975464,2.11,-1.21,-3.58,4.32
18.982428789138794,2.57,-0.11,-1.76,3.11
19.003729820251465,1.71,0.38,1.06,2.04
19.00470495223999,0.3,0.13,1.55,1.58
19.01252269744873,-0.63,-0.25,1.17,1.35
19.02364492416382,-1.0,-0.46,0.79,1.35
19.032543659210205,-0.55,-0.06,1.19,1.31
19.053123950958252,0.0,0.34,1.68,1.71
19.054027795791626,0.21,0.07,1.41,1.42
19.062452793121338,1.16,-0.29,-0.12,1.2
19.073784828186035,2.05,-0.08,-1.68,2.65
19.08262586593628,1.5,-0.21,-1.34,2.02
19.10279679298401,1.01,-0.26,-0.73,1.27
19.103705883026123,0.92,-0.14,-0.57,1.09
19.11256170272827,0.47,0.03,0.09,0.47
19.123656749725342,-0.27,0.06,0.48,0.55
19.132728815078735,-0.72,0.05,0.42,0.83
19.15293598175049,-1.01,0.12,0.3,1.06
19.153835773468018,-0.35,0.1,0.0,0.36
19.162648677825928,0.67,0.09,-0.06,0.67
19.173919677734375,1.06,-0.01,-0.68,1.25
19.182726860046387,1.33,-0.16,-0.66,1.49
19.20290780067444,0.81,-0.13,-0.25,0.85
19.203826904296875,-0.04,0.03,0.22,0.22
19.21272087097168,-0.56,0.06,0.45,0.72
19.223817825317383,-0.69,0.05,0.4,0.79
19.232882976531982,-0.48,0.01,0.23,0.53
19.252933979034424,-0.74,0.32,-0.21,0.83
19.253809928894043,-0.17,0.17,-0.83,0.86
19.26271677017212,0.21,-0.25,-0.61,0.69
19.274022817611694,-0.68,0.26,-0.44,0.85
19.282773971557617,-1.08,0.07,-0.67,1.27
19.30306887626648,-0.97,-0.07,-0.14,0.98
19.303971767425537,-1.25,0.09,-0.23,1.27
19.313105821609497,-1.4,0.21,-0.46,1.48
19.324059009552002,-1.57,0.25,-0.44,1.64
19.33296298980713,-1.62,0.21,-0.43,1.68
19.352664947509766,-1.36,0.2,-0.42,1.43
19.353494882583618,-0.7,0.24,0.1,0.74
19.36294984817505,-0.54,0.34,-0.16,0.65
19.37434983253479,-0.49,0.68,-0.04,0.83
19.383004665374756,-0.53,0.67,0.4,0.94
19.403082847595215,-1.18,0.85,0.27,1.47
19.403989791870117,-1.71,0.78,0.09,1.88
19.41300868988037,-2.04,0.77,-0.54,2.24
19.424156665802002,-2.05,1.33,-0.85,2.58
19.43305778503418,-1.74,1.66,-1.17,2.67
19.45331883430481,-1.56,1.81,-1.62,2.88
19.454222679138184,-1.64,2.07,-1.78,3.18
19.46307682991028,-1.83,2.43,-1.92,3.59
19.474267959594727,-2.15,2.76,-2.04,4.04
19.483131885528564,-2.3,2.89,-1.75,4.08
19.50328278541565,-2.14,2.91,-1.64,3.96
19.504196882247925,-2.28,3.11,-1.4,4.1
19.513274669647217,-2.59,4.15,-1.43,5.09
19.524477005004883,-3.18,6.07,-2.66,7.35
19.533419847488403,-4.08,7.24,-3.39,8.97
19.553138732910156,-4.62,7.82,-3.2,9.62
19.554036855697632,-5.15,8.56,-3.59,10.61
19.563087940216064,-6.4,8.71,-4.09,11.55
19.57421588897705,-9.51,11.17,-3.84,15.16
19.583370685577393,-15.1,18.06,-2.99,23.73
19.603124856948853,-11.8,14.83,-4.58,19.49
19.603980779647827,-9.06,7.89,-5.36,13.15
19.61312985420227,-9.84,7.46,-4.19,13.03
19.624220848083496,-10.26,9.29,-4.71,14.62
19.633455753326416,-8.65,9.4,-4.48,13.53
19.653535842895508,-8.81,7.51,-3.74,12.16
19.65443778038025,-8.6,4.66,-2.53,10.1
19.663391828536987,-5.64,1.72,-1.98,6.22
19.674546718597412,0.15,-3.46,-3.19,4.7
19.68353581428528,3.65,-7.85,-5.68,10.35
19.704317808151245,1.73,-4.83,-4.91,7.1
19.705219745635986,-4.33,1.62,-4.18,6.23
19.71361780166626,-9.9,0.27,-4.25,10.77
19.724734783172607,-14.27,-3.75,-3.08,15.07
19.73368787765503,-13.93,-6.32,-1.78,15.39
19.754246711730957,-9.42,-5.39,-1.45,10.94
19.755152702331543,-6.4,-4.78,-1.57,8.14
19.763661861419678,-5.54,-5.29,-1.97,7.9
19.774971961975098,-5.78,-6.18,-2.29,8.76
19.783533811569214,-6.07,-6.03,-2.5,8.91
19.804248809814453,-6.28,-5.15,-2.53,8.5
19.805161952972412,-6.39,-4.69,-2.24,8.23
19.813512802124023,-6.64,-4.85,-1.8,8.41
19.8246648311615,-6.56,-4.49,-1.48,8.08
19.833688735961914,-5.93,-3.83,-1.24,7.16
19.853449821472168,-5.12,-3.02,-1.08,6.04
19.854305744171143,-4.38,-2.34,-1.01,5.06
19.863533973693848,-3.8,-1.76,-1.15,4.34
19.87467885017395,-3.25,-1.05,-1.08,3.58
19.88362979888916,-2.81,-0.43,-0.56,2.89
19.903932809829712,-2.26,0.05,-0.2,2.26
19.904841899871826,-1.59,0.86,-0.43,1.85
19.913668870925903,-0.9,1.96,-0.75,2.28
19.924811840057373,-0.42,3.05,-0.78,3.17
19.93371868133545,0.06,4.07,-0.6,4.11
19.953795909881592,0.89,5.39,-0.58,5.49
19.954699993133545,2.22,6.93,-0.57,7.29
19.963768005371094,4.09,8.32,-0.17,9.27
19.975045680999756,6.15,10.06,0.32,11.79
19.983949661254883,7.89,11.85,0.41,14.24
20.004318714141846,8.63,13.03,0.47,15.63
20.005250930786133,9.62,14.13,0.77,17.11
20.013925790786743,11.67,14.95,1.48,19.02
20.025097846984863,14.04,14.15,1.73,20.0
20.033957958221436,16.06,10.68,1.38,19.33
20.05404567718506,19.6,5.43,1.9,20.42
20.05494499206543,22.9,2.34,4.08,23.37
20.063963890075684,25.02,3.13,6.06,25.93
20.075111865997314,19.51,6.38,5.65,21.29
20.083975791931152,13.84,13.16,5.09,19.76
20.10455894470215,8.34,22.87,3.97,24.66
20.105451822280884,4.8,2.42,2.25,5.82
20.11401891708374,-4.34,-7.0,-4.59,9.42
20.125128746032715,-18.91,-1.19,-4.57,19.49
20.134206771850586,-22.75,1.73,7.18,23.91
20.155027866363525,-1.11,0.8,8.71,8.81
20.15595579147339,10.31,3.06,0.83,10.78
20.164109706878662,11.13,3.91,-0.7,11.81
20.175209999084473,5.66,2.75,-0.93,6.36
20.184117794036865,1.63,-0.92,-1.41,2.34
20.204320907592773,2.53,-0.29,-1.27,2.84
20.205230712890625,3.19,0.17,-0.46,3.22
20.214143753051758,3.91,-0.26,0.13,3.92
20.225252866744995,4.37,-0.02,-0.57,4.4
20.234132766723633,3.78,-0.13,-0.02,3.78
20.25451898574829,3.22,-0.3,1.28,3.47
20.255414962768555,1.84,-0.03,1.75,2.53
20.264261722564697,0.18,0.12,2.17,2.18
20.275381803512573,-0.28,0.07,2.46,2.47
20.284268856048584,0.27,-0.09,1.83,1.85
20.30559778213501,0.93,0.07,0.54,1.07
20.30654001235962,0.98,-0.04,-0.87,1.31
20.31421184539795,0.85,-0.22,-1.79,1.99
20.325273990631104,1.02,-0.05,-1.84,2.1
20.33431887626648,1.44,0.11,-1.41,2.01
20.35479974746704,1.54,-0.05,-1.02,1.84
20.35569977760315,0.48,0.13,-0.42,0.65
20.364423751831055,-0.62,0.27,0.47,0.82
20.375584840774536,-1.39,0.16,0.86,1.64
20.38438081741333,-1.53,0.1,0.59,1.64
20.404448986053467,-1.06,0.11,-0.08,1.06
20.405351877212524,-0.36,0.08,-0.67,0.76
20.414410829544067,-0.02,0.03,-1.12,1.12
20.42562484741211,0.1,-0.09,-1.06,1.06
20.434484004974365,-0.26,-0.18,-0.78,0.84
20.454465866088867,-0.81,-0.13,-0.33,0.88
20.455370903015137,-1.22,-0.05,0.04,1.22
20.464390754699707,-1.56,0.02,0.21,1.57
20.47544574737549,-1.37,0.0,-0.2,1.38
20.484290838241577,-0.72,0.0,-0.3,0.77
20.504063844680786,-0.6,0.06,-0.45,0.75
20.504909992218018,-0.83,0.04,-0.57,1.0
20.514526844024658,-0.6,-0.03,-0.37,0.7
20.525505781173706,-0.36,-0.05,-0.25,0.44
20.534490823745728,-0.28,-0.05,0.13,0.31
20.553884983062744,-0.39,0.06,-0.07,0.4
20.55467700958252,-0.39,0.12,-0.15,0.43
20.564510822296143,-0.1,0.09,-0.15,0.2
20.57566785812378,-0.04,0.08,-0.16,0.18
20.584556818008423,-0.1,-0.01,-0.13,0.16
20.603954792022705,-0.2,0.04,-0.18,0.27
20.60479497909546,-0.42,0.07,-0.4,0.58
20.61461067199707,-0.38,0.1,-0.44,0.58
20.62568688392639,-0.32,0.26,-0.3,0.5
20.634657859802246,-0.33,0.26,-0.17,0.45
20.653796672821045,-0.56,0.23,-0.16,0.62
20.654645919799805,-0.99,0.33,-0.08,1.04
20.66468381881714,-1.21,0.38,-0.06,1.26
20.675874710083008,-1.2,0.55,-0.27,1.34
20.68466877937317,-1.09,0.48,-0.39,1.25
20.70406985282898,-1.12,0.51,-0.83,1.48
20.704908847808838,-1.2,0.86,-1.13,1.85
20.714780807495117,-1.4,1.23,-1.34,2.29
20.725895881652832,-1.42,1.6,-1.02,2.36
20.734885692596436,-1.59,1.85,-0.87,2.58
20.754405975341797,-1.67,1.87,-1.15,2.75
20.755253791809082,-1.48,1.97,-1.3,2.78
20.76465892791748,-1.18,2.13,-1.34,2.77
20.775999784469604,-1.08,2.0,-1.03,2.49
20.7846999168396,-0.86,1.71,-0.74,2.05
20.804232835769653,-0.97,1.92,-0.88,2.32
20.80500078201294,-1.37,2.64,-0.88,3.1
20.814889907836914,-1.94,3.72,-1.73,4.53
20.825840950012207,-2.9,5.13,-3.14,6.67
20.834954738616943,-3.7,6.35,-3.72,8.23
20.854443788528442,-4.22,6.79,-3.53,8.73
20.85532784461975,-5.1,6.68,-3.5,9.1
20.865132808685303,-6.31,5.98,-3.49,9.36
20.876205921173096,-7.58,5.87,-3.53,10.21
20.884930849075317,-11.22,9.38,-3.1,14.94
20.90455389022827,-10.43,10.34,-2.77,14.94
20.905406951904297,-5.94,7.2,-3.67,10.02
20.91512393951416,-4.73,5.87,-3.07,8.13
20.92611289024353,-5.36,7.15,-2.99,9.42
20.935118675231934,-4.99,8.41,-2.79,10.16
20.955342769622803,-5.62,7.28,-3.03,9.68
20.956251859664917,-6.76,5.57,-3.27,9.34
20.96507477760315,-6.0,3.86,-2.85,7.68
20.976380825042725,-3.26,2.02,-2.99,4.86
20.985236883163452,0.7,-3.52,-5.16,6.28
21.004974842071533,-3.28,-4.5,-6.04,8.21
21.005812883377075,-8.24,-0.3,-3.75,9.05
21.015379905700684,-13.01,1.82,-4.35,13.83
21.02651071548462,-14.91,1.44,-2.99,15.27
21.035327911376953,-12.65,-1.99,-0.87,12.83
21.05519676208496,-9.13,-4.57,-1.24,10.28
21.05604887008667,-6.5,-4.8,-1.96,8.31
21.06525468826294,-5.8,-3.64,-2.56,7.31
21.076523780822754,-6.41,-2.61,-2.88,7.49
21.085301876068115,-6.75,-2.76,-2.79,7.8
21.104678869247437,-6.36,-3.07,-2.74,7.57
21.105515003204346,-5.82,-3.05,-2.63,7.07
21.115275859832764,-5.88,-2.99,-2.59,7.08
21.12640881538391,-6.16,-2.53,-2.63,7.15
21.13539481163025,-5.92,-2.3,-2.38,6.78
21.15443992614746,-4.72,-2.23,-2.37,5.73
21.155311822891235,-3.33,-1.74,-2.54,4.53
21.165334701538086,-2.79,-1.44,-2.54,4.03
21.176469802856445,-2.69,-1.22,-2.28,3.73
21.185178756713867,-2.6,-0.72,-2.19,3.47
21.20444393157959,-2.38,-0.23,-1.97,3.09
21.20523166656494,-1.64,-0.13,-1.76,2.4
21.215473890304565,-1.22,0.53,-2.31,2.66
21.22632884979248,-0.98,1.69,-2.53,3.19
21.235366821289062,-0.52,2.33,-2.25,3.28
21.254186868667603,0.32,3.02,-2.29,3.8
21.25518798828125,1.06,3.99,-2.32,4.73
21.265390872955322,1.56,4.88,-2.13,5.54
21.27703285217285,2.66,6.08,-1.94,6.91
21.285560846328735,4.25,7.72,-1.77,8.98
21.304821968078613,5.86,9.58,-1.48,11.32
21.305662870407104,7.17,10.95,-1.13,13.13
21.315748691558838,7.75,11.98,-0.49,14.27
21.326955795288086,8.44,12.72,0.43,15.27
21.33580780029297,9.64,13.17,1.13,16.36
21.355255842208862,12.5,11.66,1.3,17.14
21.35608983039856,16.34,7.6,0.48,18.02
21.365514755249023,19.13,4.04,2.03,19.65
21.3767409324646,19.76,2.35,5.5,20.64
21.385600805282593,16.75,4.03,6.7,18.48
21.40529775619507,14.62,6.79,6.21,17.27
21.406182765960693,13.76,6.53,6.53,16.57
21.415725708007812,13.28,4.03,6.96,15.52
21.426719665527344,13.33,2.36,6.07,14.83
21.43563175201416,12.82,4.25,4.83,14.34
21.45560598373413,3.74,25.06,3.01,25.51
21.456459999084473,-6.31,9.66,-2.28,11.76
21.465900897979736,-13.99,-14.31,-2.6,20.18
21.477033853530884,-23.86,-5.85,-3.83,24.86
21.48570680618286,-16.59,3.33,4.54,17.51
21.50623893737793,3.66,6.55,7.69,10.74
21.5071439743042,12.89,3.93,0.17,13.47
21.516021728515625,14.36,3.77,-3.19,15.18
21.527040004730225,6.57,1.52,-0.19,6.74
21.53610587120056,2.32,0.01,1.74,2.9
21.556493759155273,1.6,-0.98,1.22,2.23
21.5574049949646,2.41,-1.21,-1.63,3.15
21.565983772277832,3.59,-0.43,-2.55,4.42
21.57731294631958,3.83,-0.16,-0.67,3.89
21.5859317779541,2.91,0.09,1.21,3.15
21.60708999633789,1.18,0.19,1.51,1.92
21.608093738555908,0.39,-0.17,1.65,1.7
21.616036891937256,0.26,-0.12,1.03,1.06
21.62721300125122,-0.46,-0.18,0.74,0.88
21.636011838912964,-0.57,0.18,-0.03,0.59
21.656490802764893,-0.1,0.19,-1.45,1.46
21.65739679336548,0.96,-0.29,-2.15,2.37
21.666067838668823,2.77,-0.38,-1.05,2.98
21.6772198677063,2.82,0.09,0.07,2.82
21.68603777885437,1.4,0.09,0.27,1.42
21.706247806549072,0.36,0.03,1.16,1.21
21.707133769989014,0.11,0.16,1.18,1.19
21.71606183052063,0.14,0.13,0.61,0.63
21.727293968200684,0.36,0.05,0.06,0.36
21.73599100112915,0.73,0.04,-0.18,0.75
21.75564479827881,0.68,0.09,-0.37,0.77
21.75648069381714,-0.08,0.02,-0.2,0.21
21.766043663024902,-0.41,0.06,-0.28,0.5
21.77733588218689,-0.4,0.08,-0.43,0.59
21.78601598739624,-0.39,-0.11,-0.32,0.51
21.80633783340454,-0.25,-0.1,-0.32,0.41
21.80726385116577,-0.33,-0.01,-0.24,0.4
21.816083908081055,-0.33,-0.04,0.07,0.33
21.827377796173096,-0.58,0.06,0.03,0.58
21.83615779876709,-1.03,0.18,-0.39,1.11
21.85614776611328,-1.24,0.12,-0.5,1.34
21.856928825378418,-1.01,0.12,-0.56,1.16
21.86637592315674,-0.91,0.16,-0.6,1.1
21.877457857131958,-0.93,0.18,-0.54,1.09
21.886164665222168,-1.05,0.17,-0.49,1.17
21.9061598777771,-0.91,0.24,-0.18,0.95
21.907026767730713,-0.81,0.17,-0.01,0.82
21.916493892669678,-0.71,0.23,-0.02,0.74
21.92760682106018,-0.63,0.35,-0.06,0.72
21.936330795288086,-0.25,0.46,-0.21,0.56
21.95614981651306,-0.11,0.49,-0.2,0.54
21.956987857818604,-0.33,0.54,-0.23,0.67
21.966290950775146,-0.62,0.52,-0.14,0.82
21.977577686309814,-1.08,0.49,-0.2,1.2
21.986226797103882,-1.49,0.58,-0.35,1.63
22.005919933319092,-1.91,0.8,-0.79,2.21
22.006781816482544,-1.9,1.14,-1.12,2.48
22.016517877578735,-1.95,1.3,-1.34,2.69
22.027519702911377,-2.1,1.42,-1.44,2.91
22.036454677581787,-2.44,1.78,-1.18,3.24
22.05565881729126,-2.64,1.83,-0.94,3.34
22.05650281906128,-2.57,1.97,-1.03,3.39
22.066569805145264,-2.13,2.31,-1.28,3.39
22.07760977745056,-1.6,2.39,-1.25,3.13
22.08637571334839,-1.46,2.41,-1.28,3.09
22.106287956237793,-1.88,2.57,-1.17,3.39
22.107131004333496,-2.47,3.0,-0.88,3.98
22.116556882858276,-3.44,3.73,-1.76,5.37
22.127646923065186,-3.97,4.41,-2.97,6.63
22.136578798294067,-3.9,5.23,-3.13,7.23
22.155828952789307,-4.23,5.48,-3.71,7.85
22.156669855117798,-5.2,6.16,-4.74,9.35
22.16655683517456,-7.04,8.12,-4.96,11.83
22.177923679351807,-9.83,11.43,-4.69,15.78
22.1867458820343,-8.74,10.86,-5.3,14.91
22.20667266845703,-7.69,10.31,-5.52,13.99
22.207512855529785,-8.0,8.09,-4.28,12.15
22.216908931732178,-8.33,6.96,-4.61,11.79
22.228039741516113,-8.84,7.04,-4.0,11.98
22.236713886260986,-7.74,7.98,-3.82,11.75
22.256908893585205,-5.87,8.39,-4.68,11.25
22.25778579711914,-7.71,6.73,-3.34,10.76
22.2667977809906,-8.21,5.19,-1.58,9.84
22.278167724609375,-4.55,3.12,-1.63,5.75
22.286733865737915,-0.16,-2.39,-3.88,4.55
22.306976795196533,1.57,-6.04,-6.67,9.13
22.307857990264893,-0.72,-3.06,-3.93,5.03
22.31700897216797,-5.13,2.2,-4.45,7.13
22.3279447555542,-9.38,1.07,-4.27,10.36
22.336833000183105,-13.33,-3.72,-2.14,14.0
22.357149839401245,-13.27,-6.93,-1.33,15.02
22.35805082321167,-9.67,-5.41,-1.51,11.18
22.36692190170288,-7.27,-4.16,-1.27,8.47
22.3782958984375,-6.65,-3.95,-1.63,7.9
22.386961936950684,-6.49,-4.13,-1.94,7.93
22.406702995300293,-6.52,-3.91,-2.0,7.86
22.407477855682373,-6.52,-3.74,-1.62,7.68
22.41706371307373,-6.41,-3.91,-1.04,7.58
22.428149700164795,-6.52,-3.59,-0.71,7.47
22.437006950378418,-6.67,-2.93,-0.65,7.31
22.45653986930847,-6.36,-2.29,-0.65,6.79
22.457397937774658,-5.49,-1.51,-0.52,5.71
22.46720600128174,-4.21,-0.98,-0.53,4.35
22.478375911712646,-3.21,-0.73,-0.36,3.31
22.48707866668701,-2.82,-0.32,0.03,2.83
22.506910800933838,-2.59,0.06,0.48,2.63
22.50776767730713,-2.11,0.57,0.71,2.29
22.517323970794678,-1.93,1.39,0.45,2.42
22.52828288078308,-1.85,2.59,0.47,3.21
22.537131786346436,-1.35,3.39,0.8,3.73
22.5568368434906,-0.97,4.25,0.71,4.41
22.557690858840942,-0.51,5.56,0.63,5.61
22.567145824432373,0.34,6.54,0.77,6.59
22.578447818756104,2.12,7.59,1.33,7.99
22.587129831314087,4.44,9.08,1.78,10.26
22.606823921203613,6.17,10.87,2.13,12.67
22.6076979637146,6.97,12.24,2.22,14.25
22.617525815963745,7.89,13.09,2.06,15.42
22.6286039352417,9.93,14.1,3.15,17.53
22.637390851974487,12.49,13.7,3.37,18.84
22.656646728515625,15.85,10.83,2.61,19.37
22.65752387046814,19.87,5.93,2.57,20.89
22.667406797409058,22.94,2.53,3.98,23.41
22.67858600616455,23.37,3.73,5.99,24.41
22.687301874160767,19.86,6.96,5.72,21.8
22.70691180229187,14.58,16.63,4.63,22.59
22.70778179168701,12.69,13.29,4.71,18.96
22.71747088432312,10.51,0.8,-3.64,11.15
22.72853183746338,-3.63,4.51,-16.66,17.63
22.73745083808899,-18.57,-1.6,-3.92,19.04
22.757428884506226,-9.9,-2.23,12.43,16.04
22.75826597213745,6.87,6.46,2.5,9.75
22.76746368408203,7.16,5.02,-1.95,8.95
22.778770923614502,3.62,0.65,2.2,4.28
22.787314891815186,0.41,0.0,2.86,2.88
22.806577682495117,1.38,-0.11,0.62,1.51
22.80737280845642,2.59,-0.29,0.54,2.66
22.817651748657227,5.31,0.16,0.59,5.34
22.828710794448853,7.09,0.66,-0.93,7.18
22.837549686431885,6.65,0.19,-1.69,6.86
22.85653591156006,3.88,-0.57,-0.52,3.95
22.857488870620728,2.66,-0.15,0.29,2.67
22.867538928985596,1.79,0.26,0.89,2.01
22.87860870361328,0.37,0.08,2.03,2.06
22.887447834014893,-0.03,-0.1,2.11,2.11
22.906664848327637,0.38,-0.22,1.49,1.55
22.907498836517334,0.69,-0.04,1.16,1.35
22.917747974395752,0.78,0.02,0.64,1.0
22.92888379096985,0.75,-0.06,-0.72,1.04
22.937570810317993,0.45,-0.06,-1.47,1.53
22.956889867782593,0.7,-0.16,-1.74,1.88
22.95768690109253,1.62,0.05,-1.47,2.18
22.967659950256348,1.1,0.13,-0.82,1.37
22.97893476486206,0.05,0.08,-0.46,0.46
22.987664699554443,-0.63,0.12,0.13,0.65
23.006709814071655,-1.05,0.15,0.41,1.13
23.00751781463623,-0.77,0.07,0.35,0.84
23.01785182952881,-0.21,0.04,0.14,0.25
23.0288188457489,0.19,0.03,-0.03,0.19
23.037855863571167,0.41,-0.03,-0.39,0.56
23.057132720947266,0.37,-0.05,-0.65,0.74
23.058005809783936,0.01,-0.1,-0.41,0.42
23.067885875701904,-0.34,-0.06,0.15,0.37
23.07912278175354,-0.63,0.01,0.23,0.67
23.087836742401123,-0.52,0.0,0.41,0.66
23.107531785964966,-0.26,-0.05,0.39,0.47
23.108388900756836,-0.09,-0.03,-0.28,0.29
23.118048667907715,-0.11,-0.04,-0.5,0.51
23.129133701324463,-0.01,-0.07,-0.64,0.64
23.137935876846313,-0.1,-0.08,-0.19,0.22
23.15708875656128,-0.7,-0.07,-0.32,0.77
23.157914876937866,-1.12,0.03,-0.2,1.13
23.16796588897705,-1.38,0.12,-0.23,1.4
23.17904567718506,-1.3,0.12,-0.15,1.31
23.187911987304688,-1.01,0.17,-0.32,1.07
23.207283973693848,-0.76,0.19,-0.44,0.89
23.2080979347229,-0.73,0.14,-0.52,0.9
23.218122005462646,-0.8,0.08,-0.58,0.99
23.229076862335205,-0.93,0.05,-0.6,1.1
23.237948894500732,-1.03,0.15,-0.57,1.18
23.257483959197998,-1.19,0.29,-0.42,1.29
23.258291721343994,-1.4,0.34,-0.33,1.47
23.26815891265869,-1.43,0.45,-0.09,1.5
23.27930188179016,-1.14,0.52,-0.15,1.26
23.288100719451904,-0.65,0.43,-0.6,0.98
23.30743384361267,-0.6,0.48,-0.69,1.03
23.308242797851562,-1.12,0.62,-0.74,1.47
23.318367958068848,-1.43,1.11,-0.86,2.0
23.329360961914062,-1.6,1.3,-0.57,2.13
23.338263988494873,-1.19,1.17,-0.62,1.78
23.357394695281982,-0.72,1.51,-1.22,2.07
23.358218669891357,-0.41,2.04,-1.07,2.33
23.36820888519287,-0.33,2.2,-1.0,2.43
23.379295825958252,-0.65,1.99,-0.89,2.27
23.388198852539062,-0.88,2.05,-0.6,2.31
23.407307863235474,-0.98,2.17,-0.34,2.4
23.408185958862305,-1.13,2.21,-0.58,2.54
23.418365001678467,-1.48,2.6,-0.81,3.09
23.42927598953247,-1.97,3.0,-1.14,3.76
23.438316822052002,-2.47,3.88,-1.71,4.9
23.457541942596436,-3.28,5.05,-2.82,6.64
23.458340883255005,-4.22,5.97,-3.06,7.92
23.468376874923706,-4.92,6.69,-3.3,8.93
23.47962784767151,-5.76,7.37,-3.68,10.05
23.48831582069397,-6.96,7.56,-3.82,10.96
23.507859706878662,-7.99,7.84,-4.54,12.07
23.508670806884766,-10.34,10.34,-4.95,15.43
23.518672943115234,-13.69,16.24,-3.66,21.55
23.529616832733154,-8.71,13.31,-4.83,16.62
23.538352966308594,-6.47,8.93,-5.48,12.31
23.557922840118408,-6.74,8.04,-3.79,11.15
23.5588858127594,-7.46,8.21,-3.73,11.7
23.568480968475342,-6.5,8.48,-3.51,11.24
23.579694747924805,-6.09,6.99,-3.05,9.75
23.588461875915527,-5.7,5.65,-2.38,8.37
23.607926845550537,-2.25,0.98,-3.5,4.27
23.608763694763184,0.5,-5.46,-7.57,9.34
23.618565797805786,0.06,-4.41,-6.39,7.76
23.62983274459839,-5.29,1.14,-4.87,7.28
23.638747692108154,-11.23,1.33,-5.71,12.66
23.658087730407715,-13.85,-0.43,-3.62,14.32
23.658888816833496,-12.06,-4.04,-1.03,12.76
23.6685688495636,-8.51,-6.44,-1.66,10.8
23.679648876190186,-6.47,-5.96,-2.31,9.09
23.688512802124023,-6.08,-4.69,-2.66,8.12
23.707613945007324,-6.54,-3.87,-3.08,8.19
23.70851993560791,-6.93,-3.91,-3.12,8.54
23.718740940093994,-6.84,-3.97,-2.95,8.44
23.72982692718506,-6.78,-3.89,-2.54,8.21
23.73869276046753,-6.61,-3.8,-2.08,7.9
23.75785779953003,-5.84,-3.59,-1.82,7.09
23.758647918701172,-4.8,-3.05,-1.85,5.98
23.768738746643066,-4.0,-2.51,-1.89,5.08
23.779812812805176,-3.16,-2.18,-1.6,4.15
23.788707733154297,-2.46,-2.13,-1.5,3.58
23.80798888206482,-2.15,-1.83,-1.25,3.08
23.80878782272339,-2.25,-1.23,-1.06,2.77
23.8189640045166,-2.39,-0.39,-0.91,2.58
23.830066680908203,-2.08,0.54,-0.64,2.24
23.83882188796997,-1.38,1.36,-0.37,1.97
23.85830283164978,-0.77,1.98,-0.29,2.14
23.85914373397827,-0.48,2.44,-0.24,2.49
23.86902666091919,-0.31,3.35,-0.28,3.37
23.880138874053955,0.01,4.7,-0.62,4.74
23.888896942138672,0.82,5.99,-0.77,6.09
23.90867781639099,2.11,6.65,-0.56,6.99
23.909583806991577,3.56,7.17,-0.12,8.0
23.919160842895508,4.97,8.31,0.4,9.69
23.930349826812744,6.08,9.29,0.41,11.11
23.93931770324707,6.77,10.15,0.17,12.2
23.95940589904785,7.34,11.27,0.47,13.45
23.960311889648438,8.52,11.65,1.29,14.49
23.969079971313477,10.78,10.7,2.19,15.34
23.9802188873291,12.97,9.0,2.29,15.95
23.989094734191895,15.64,6.56,2.21,17.1
24.00846290588379,19.14,3.55,2.85,19.67
24.009310722351074,20.47,2.77,4.77,21.2
24.019254684448242,18.33,3.99,5.05,19.42
24.030178785324097,17.08,4.9,4.13,18.24
24.03907299041748,16.95,5.91,4.24,18.44
24.058449745178223,9.53,24.0,3.46,26.05
24.05923891067505,3.49,10.7,1.15,11.31
24.069230794906616,-4.14,-2.64,-10.14,11.26
24.080395698547363,-19.39,-1.77,-9.41,21.62
24.089240789413452,-19.46,-1.58,14.9,24.56
24.10845184326172,8.39,6.92,10.74,15.28
24.109248876571655,16.34,4.9,-2.23,17.2
24.119314670562744,11.96,2.34,0.34,12.19
24.13025188446045,1.47,1.07,-0.62,1.92
24.139216899871826,-1.56,-3.16,-3.87,5.23
24.158358812332153,-0.49,-1.75,-3.13,3.61
24.159162998199463,3.79,0.66,1.45,4.11
24.169318675994873,8.45,0.74,3.96,9.36
24.180516719818115,8.07,-0.47,0.75,8.11
24.189335823059082,6.31,-1.02,-0.28,6.39
24.208491802215576,4.05,-0.33,1.15,4.22
24.209292888641357,0.63,0.01,3.1,3.16
24.219514846801758,-1.93,0.36,3.3,3.83
24.23054075241089,-2.26,0.52,1.0,2.52
24.23942279815674,-1.16,0.01,-1.03,1.55
24.258466720581055,-0.16,-0.16,0.29,0.36
24.259358882904053,1.76,-0.34,-0.85,1.98
24.269551753997803,3.14,-0.29,-1.37,3.43
24.280417919158936,2.71,-0.04,-1.55,3.12
24.28943967819214,1.0,0.14,-1.45,1.76
24.308907985687256,-0.16,0.16,0.31,0.38
24.309762954711914,-0.33,0.25,0.71,0.82
24.31960391998291,0.14,0.15,0.74,0.76
24.33052968978882,0.7,0.1,0.13,0.71
24.339613914489746,1.46,0.02,-0.2,1.47
24.359156847000122,1.44,0.04,-0.09,1.44
24.359994888305664,0.84,0.18,-0.28,0.9
24.369586944580078,0.31,0.21,-0.39,0.54
24.380497932434082,0.19,0.12,-0.24,0.32
24.389598846435547,0.15,-0.05,-0.14,0.21
24.409296989440918,0.15,-0.11,-0.04,0.19
24.410147666931152,0.3,0.05,0.0,0.3
24.419814825057983,0.09,0.15,-0.31,0.35
24.430668830871582,-0.3,0.01,-0.39,0.49
24.439759731292725,-0.15,0.05,-0.27,0.31
24.45898675918579,0.11,-0.03,-0.11,0.15
24.459787845611572,0.29,-0.26,0.01,0.38
24.469647884368896,0.26,-0.26,-0.04,0.36
24.480974674224854,-0.04,-0.09,-0.11,0.14
24.48989987373352,-0.46,0.0,-0.24,0.51
24.509155750274658,-0.89,-0.07,-0.4,0.97
24.509986877441406,-1.04,-0.14,-0.34,1.1
24.51991367340088,-0.91,-0.13,-0.36,0.98
24.530980825424194,-0.87,-0.2,-0.33,0.95
24.53992486000061,-0.96,-0.18,0.05,0.97
24.559016704559326,-0.77,-0.05,0.21,0.79
24.559829711914062,-0.56,0.17,0.09,0.59
24.569762706756592,-0.42,0.24,0.31,0.57
24.581077814102173,-0.38,0.23,0.1,0.45
24.589959859848022,-0.65,0.39,-0.49,0.9
24.60915780067444,-1.22,0.68,-0.87,1.64
24.609957695007324,-1.97,0.88,-0.73,2.27
24.62007784843445,-2.51,0.94,-0.6,2.74
24.630993843078613,-2.48,1.13,-0.76,2.82
24.640047788619995,-2.24,1.66,-1.27,3.06
24.659068822860718,-1.95,2.06,-2.09,3.52
24.659960746765137,-1.6,2.46,-2.16,3.64
24.669967889785767,-1.33,2.44,-1.77,3.29
24.68125295639038,-1.14,2.22,-1.19,2.76
24.69018578529358,-1.33,2.54,-0.73,2.95
24.709637880325317,-2.17,3.75,-1.25,4.5
24.71047878265381,-2.99,5.23,-2.08,6.37
24.720125675201416,-3.43,6.76,-2.13,7.87
24.73122501373291,-4.03,7.66,-2.34,8.96
24.740148782730103,-4.97,7.71,-3.03,9.66
24.759644985198975,-5.57,7.76,-3.93,10.32
24.760488986968994,-6.11,7.83,-4.52,10.91
24.770206928253174,-6.76,8.33,-5.53,12.06
24.78136682510376,-8.18,9.56,-5.6,13.77
24.7902569770813,-12.03,14.9,-4.17,19.59
24.809765815734863,-9.24,14.32,-5.46,17.89
24.810659885406494,-6.0,9.61,-7.53,13.6
24.820327758789062,-6.12,6.79,-5.01,10.42
24.831279754638672,-7.79,5.52,-5.02,10.78
24.840410709381104,-7.56,4.78,-4.67,10.09
24.859556674957275,-6.58,4.14,-3.52,8.53
24.860432863235474,-5.45,3.1,-3.01,6.95
24.87041473388672,-2.22,-0.73,-2.99,3.79
24.881532669067383,0.79,-5.59,-6.09,8.3
24.89027690887451,0.73,-4.5,-5.51,7.15
24.90952181816101,-4.54,0.22,-4.21,6.19
24.91030979156494,-10.05,0.95,-4.8,11.17
24.92036485671997,-13.22,-0.22,-3.0,13.55
24.9315128326416,-12.56,-4.08,-0.73,13.22
24.940496921539307,-9.93,-6.51,-0.97,11.91
24.959532737731934,-7.61,-5.98,-1.48,9.79
24.960315704345703,-6.36,-4.73,-1.92,8.15
24.970398902893066,-6.28,-3.68,-2.31,7.63
24.98160171508789,-6.45,-3.4,-2.15,7.6
24.990461826324463,-6.65,-3.65,-1.72,7.77
25.00968885421753,-6.69,-4.0,-0.98,7.85
25.010478973388672,-6.77,-4.47,-0.41,8.12
25.020481824874878,-6.46,-3.8,-0.67,7.52
25.031494855880737,-5.8,-2.99,-1.1,6.61
25.04061985015869,-5.19,-2.78,-1.47,6.06
25.059939861297607,-4.64,-2.13,-1.58,5.34
25.060776710510254,-4.07,-1.49,-1.35,4.53
25.070727825164795,-3.59,-0.85,-1.16,3.86
25.081854820251465,-3.3,-0.21,-1.04,3.46
25.090794801712036,-2.96,0.2,-1.03,3.14
25.110018730163574,-2.48,0.65,-0.96,2.73
25.110803842544556,-1.66,1.24,-0.86,2.24
25.120773792266846,-0.91,1.64,-0.94,2.09
25.1317617893219,-0.61,2.45,-1.06,2.73
25.1407527923584,-0.24,3.52,-0.79,3.61
25.15992498397827,0.14,4.54,-0.74,4.6
25.160712718963623,0.43,5.41,-0.69,5.47
25.170670986175537,1.06,6.42,-0.46,6.52
25.181753873825073,2.05,7.43,-0.18,7.7
25.190695762634277,3.44,7.85,0.27,8.57
25.209874868392944,4.69,8.22,0.59,9.48
25.210664749145508,4.95,8.82,0.88,10.15
25.22085475921631,5.23,9.32,1.48,10.78
25.232037782669067,6.32,9.47,1.83,11.53
25.240943908691406,8.02,9.29,2.62,12.54
25.259902000427246,9.2,8.64,3.45,13.08
25.260698795318604,10.17,7.33,4.06,13.17
25.270901679992676,11.65,6.17,4.33,13.87
25.281973838806152,13.71,5.31,4.59,15.4
25.290738821029663,14.83,4.76,5.22,16.42
25.310643672943115,14.77,4.66,5.82,16.54
25.311492919921875,14.29,4.75,5.94,16.18
25.32097887992859,13.79,4.77,6.07,15.8
25.332085847854614,13.78,4.44,6.0,15.67
25.340990781784058,12.96,8.38,6.21,16.63
25.360151767730713,2.63,26.28,4.35,26.76
25.360938787460327,-1.9,6.93,4.5,8.47
25.37092876434326,-5.99,-11.47,-0.29,12.94
25.382032871246338,-14.97,-4.46,-3.2,15.94
25.39098286628723,-13.99,2.08,6.48,15.55
25.410324811935425,3.83,5.32,10.66,12.51
25.411112785339355,11.02,4.22,1.11,11.85
25.42122483253479,8.81,0.93,-1.56,8.99
25.432411670684814,5.68,4.29,-3.31,7.85
25.44124984741211,4.23,1.88,-5.23,6.98
25.460322856903076,4.63,-1.54,0.22,4.88
25.461113929748535,5.28,-0.1,2.74,5.94
25.471206665039062,5.91,0.68,-0.24,5.95
25.48203182220459,5.22,0.18,-1.46,5.42
25.49116086959839,3.08,-0.26,0.07,3.09
25.510586738586426,2.69,-0.06,2.16,3.45
25.511424779891968,1.56,0.23,2.95,3.34
25.521347999572754,-0.41,-0.13,2.8,2.83
25.532529830932617,-0.48,-0.03,1.95,2.0
25.54132580757141,0.39,-0.05,1.21,1.27
25.560627937316895,0.79,-0.26,0.6,1.02
25.561463832855225,1.1,0.02,-0.71,1.3
25.571310997009277,1.21,0.06,-1.64,2.03
25.582372665405273,1.14,-0.2,-1.2,1.66
25.591425895690918,1.17,-0.14,-1.05,1.57
25.610269784927368,1.12,0.11,-1.06,1.54
25.61106300354004,0.69,0.12,-0.04,0.7
25.621309757232666,-0.18,0.1,0.48,0.52
25.632161855697632,-0.52,0.11,0.69,0.87
25.641223907470703,-0.63,0.14,0.49,0.81
25.659851789474487,-0.13,0.03,-0.09,0.16
25.661189794540405,0.3,-0.11,-0.66,0.73
25.671202659606934,0.62,0.09,-0.55,0.83
25.682284832000732,0.2,0.14,-0.9,0.93
25.691146850585938,-0.02,0.02,-0.57,0.57
25.710279941558838,-0.43,0.04,-0.13,0.45
25.71116876602173,-0.8,0.12,0.22,0.83
25.721450805664062,-0.92,0.09,0.43,1.01
25.732614994049072,-0.65,0.11,0.39,0.76
25.74154281616211,-0.26,0.14,0.03,0.29
25.760629892349243,-0.25,0.14,-0.2,0.34
25.761422872543335,-0.48,0.06,-0.17,0.51
25.771410942077637,-0.78,0.06,-0.21,0.81
25.78249979019165,-1.17,0.13,-0.02,1.17
25.79136371612549,-1.52,0.06,-0.02,1.52
25.81019687652588,-1.29,-0.07,0.15,1.3
25.811275959014893,-1.07,0.15,-0.16,1.09
25.821544885635376,-0.94,0.22,-0.4,1.04
25.832481861114502,-0.75,-0.06,-0.36,0.83
25.841615676879883,-0.7,0.12,-0.4,0.81
25.860320806503296,-0.57,0.22,-0.35,0.7
25.861472845077515,-0.49,0.14,-0.4,0.64
25.871517658233643,-0.53,0.21,-0.26,0.62
25.88269567489624,-0.82,0.35,-0.32,0.94
25.891602993011475,-1.29,0.58,-0.63,1.54
25.91062068939209,-1.71,0.95,-0.32,1.98
25.9114727973938,-1.67,1.37,-0.4,2.19
25.921756744384766,-1.32,1.62,-1.01,2.32
25.932774782180786,-1.04,1.9,-1.16,2.45
25.941741943359375,-1.31,2.13,-0.75,2.61
25.96075677871704,-1.57,1.99,-0.68,2.62
25.961642742156982,-1.83,2.26,-0.67,2.98
25.971752882003784,-2.03,2.52,-0.95,3.37
25.982909679412842,-1.93,2.72,-1.18,3.53
25.991793870925903,-1.82,2.94,-1.34,3.7
26.01105499267578,-1.96,3.48,-1.51,4.26
26.011773824691772,-2.39,4.09,-1.51,4.97
26.021925926208496,-3.06,4.58,-1.94,5.83
26.03278398513794,-3.89,5.1,-2.11,6.75
26.041950702667236,-4.55,5.97,-2.4,7.88
26.060750007629395,-5.79,7.0,-3.64,9.78
26.061741828918457,-7.02,7.29,-4.5,11.07
26.071844816207886,-7.64,7.48,-4.71,11.68
26.08297872543335,-11.3,11.87,-4.78,17.07
26.09205198287964,-13.15,15.2,-4.98,20.7
26.110673904418945,-9.92,13.06,-6.21,17.53
26.111816883087158,-9.45,9.46,-4.98,14.26
26.122108936309814,-10.71,7.22,-4.72,13.75
26.132951736450195,-11.21,6.67,-4.75,13.88
26.14205288887024,-8.93,7.03,-3.73,11.96
26.160452842712402,-5.68,6.57,-3.72,9.44
26.162030696868896,-3.73,5.09,-2.71,6.86
26.171885013580322,-4.1,3.76,-1.9,5.87
26.183191776275635,-2.43,-0.06,-2.78,3.69
26.19206190109253,-0.14,-4.35,-5.87,7.3
26.210967779159546,2.43,-1.87,-6.79,7.45
26.21182870864868,-2.32,2.5,-5.72,6.65
26.222123861312866,-10.4,-0.65,-4.2,11.23
26.232993841171265,-15.52,-3.82,-2.31,16.14
26.242243766784668,-13.87,-2.87,-1.5,14.24
26.260928869247437,-10.12,-4.26,-1.36,11.06
26.262027740478516,-7.45,-4.93,-1.59,9.07
26.27226972579956,-6.49,-5.05,-1.95,8.45
26.283312797546387,-6.5,-4.52,-2.39,8.26
26.292276859283447,-6.87,-4.17,-2.23,8.34
26.311410903930664,-6.85,-4.42,-2.18,8.43
26.31221079826355,-6.63,-4.2,-1.92,8.07
26.32234287261963,-7.08,-4.44,-1.5,8.49
26.33310079574585,-7.39,-4.2,-1.56,8.64
26.3422908782959,-7.06,-3.14,-1.89,7.95
26.360752820968628,-5.96,-1.86,-2.0,6.55
26.36216378211975,-4.44,-1.31,-1.92,5.01
26.372069835662842,-2.84,-1.31,-1.94,3.68
26.38337779045105,-2.01,-1.12,-1.66,2.83
26.392350673675537,-1.84,-0.25,-1.45,2.35
26.411112785339355,-1.78,0.44,-1.23,2.2
26.412171840667725,-1.35,0.83,-0.96,1.85
26.422401905059814,-0.94,1.78,-1.03,2.26
26.43334197998047,-0.65,2.81,-0.74,2.97
26.442404747009277,-0.4,3.63,-0.64,3.7
26.460911750793457,-0.22,4.7,-0.52,4.73
26.462437868118286,0.0,5.92,-0.25,5.92
26.472338676452637,0.52,7.12,0.28,7.14
26.483564853668213,2.26,8.2,1.15,8.58
26.492519855499268,4.49,9.71,1.48,10.79
26.512168884277344,6.24,11.3,1.8,13.03
26.51297879219055,7.5,12.47,2.12,14.7
26.522738933563232,8.8,13.44,2.18,16.21
26.53382396697998,10.24,13.9,3.29,17.57
26.5426926612854,12.42,12.98,3.06,18.22
26.56140685081482,16.21,10.09,2.43,19.24
26.5623197555542,19.71,6.44,2.67,20.9
26.572490692138672,21.96,3.45,3.25,22.46
26.583788871765137,23.34,3.38,4.93,24.09
26.592657804489136,20.99,5.48,5.46,22.37
26.6111798286438,18.71,6.2,4.99,20.33
26.61265277862549,17.69,11.45,5.33,21.73
26.622671842575073,9.56,22.99,4.29,25.26
26.63370180130005,4.41,4.31,1.38,6.31
26.642674922943115,-5.66,-2.47,-9.1,10.99
26.66177988052368,-20.74,-2.07,-4.82,21.39
26.662686824798584,-18.26,-0.72,12.9,22.36
26.67273998260498,6.45,6.63,7.52,11.92
26.68383288383484,12.75,5.32,-2.36,14.01
26.692839860916138,11.24,3.58,-2.62,12.08
26.711970806121826,5.8,0.35,-0.61,5.84
26.712759971618652,4.73,-0.43,1.5,4.98
26.72279977798462,4.69,-0.22,2.18,5.17
26.733750820159912,3.93,-0.33,-1.91,4.38
26.742896795272827,3.36,-0.08,-3.11,4.57
26.761907815933228,4.07,-0.15,-0.49,4.1
26.76278281211853,3.69,0.1,1.18,3.87
26.77280569076538,2.12,0.34,1.73,2.75
26.784092903137207,0.76,0.08,1.58,1.75
26.792871952056885,-0.32,0.02,1.52,1.55
26.811652660369873,-0.49,-0.1,1.59,1.66
26.812789916992188,0.19,-0.08,0.93,0.95
26.82298994064331,0.62,-0.04,-0.29,0.68
26.833950996398926,0.9,-0.06,-1.5,1.75
26.843100786209106,1.15,0.0,-1.62,1.98
26.86157989501953,1.25,0.0,-1.16,1.7
26.862863779067993,1.52,0.17,-0.9,1.77
26.873079776763916,0.95,0.19,-0.09,0.97
26.884252786636353,-0.34,0.05,0.58,0.67
26.89302396774292,-0.57,0.05,0.97,1.12
26.91170597076416,-0.08,0.18,1.35,1.36
26.912893772125244,0.07,0.2,0.38,0.43
26.923088788986206,0.28,0.06,-0.63,0.69
26.933944702148438,0.27,-0.14,-0.73,0.79
26.9431209564209,-0.37,-0.2,-0.55,0.69
26.96176290512085,-0.28,-0.03,-0.27,0.39
26.962982892990112,-0.26,0.02,0.04,0.26
26.97310495376587,-0.76,0.13,-0.06,0.77
26.984201908111572,-1.08,0.11,-0.11,1.09
26.99311089515686,-1.09,0.11,-0.1,1.1
27.011889934539795,-0.86,0.1,-0.09,0.87
27.013101816177368,-0.32,0.06,-0.08,0.33
27.023318767547607,-0.27,0.13,-0.2,0.36
27.034300804138184,-0.5,0.1,-0.37,0.63
27.04334282875061,-0.58,-0.02,-0.38,0.69
27.061993837356567,-0.74,0.05,-0.33,0.81
27.063077926635742,-0.52,0.25,-0.17,0.6
27.07311773300171,-0.33,0.11,-0.17,0.38
27.084263801574707,-0.03,0.19,-0.29,0.34
27.093395709991455,0.24,0.26,-0.08,0.36
27.1121187210083,0.25,0.16,-0.12,0.32
27.113125801086426,0.06,0.19,-0.39,0.43
27.123440742492676,-0.27,0.12,-0.37,0.47
27.134407997131348,-1.03,0.4,-0.44,1.18
27.143445014953613,-1.73,0.65,-0.52,1.91
27.16223669052124,-2.02,0.99,-0.51,2.3
27.163256883621216,-2.14,1.34,-0.84,2.66
27.173463821411133,-2.2,1.96,-1.11,3.14
27.18447184562683,-2.51,2.35,-0.96,3.56
27.193408012390137,-2.7,2.35,-0.49,3.61
27.212435722351074,-2.77,2.09,-0.29,3.48
27.2132408618927,-2.39,2.05,-0.56,3.19
27.223495960235596,-1.96,2.31,-1.08,3.21
27.2345027923584,-1.63,2.44,-1.71,3.39
27.243599891662598,-1.59,2.54,-1.87,3.53
27.262056827545166,-1.52,2.66,-1.8,3.55
27.26357078552246,-1.8,3.17,-1.68,4.01
27.273550987243652,-2.81,4.41,-2.1,5.63
27.284663677215576,-3.85,5.96,-3.22,7.79
27.293516874313354,-4.46,6.86,-3.71,8.98
27.31218194961548,-5.09,7.67,-3.68,9.91
27.313365936279297,-6.07,7.87,-4.09,10.74
27.323656797409058,-7.31,7.97,-4.88,11.86
27.3345627784729,-11.53,12.35,-5.46,17.75
27.343925952911377,-15.41,17.82,-5.0,24.08
27.362412929534912,-11.07,13.16,-6.91,18.53
27.36344289779663,-9.84,8.23,-5.96,14.14
27.373626708984375,-9.75,7.79,-5.02,13.45
27.384713888168335,-8.43,7.99,-5.0,12.64
27.393714904785156,-6.92,8.33,-3.82,11.48
27.413269996643066,-5.02,7.34,-3.21,9.45
27.41406774520874,-3.99,4.99,-2.51,6.86
27.42375087738037,-1.21,-0.9,-2.97,3.33
27.434748888015747,1.26,-5.94,-5.04,7.89
27.443875789642334,0.7,-3.54,-5.17,6.3
27.462885856628418,-5.31,1.75,-4.74,7.32
27.463780879974365,-10.36,2.49,-3.85,11.32
27.47387170791626,-13.77,-1.07,-1.85,13.93
27.484875679016113,-13.39,-5.0,-0.46,14.3
27.493824005126953,-10.29,-5.85,-0.73,11.85
27.512836933135986,-8.26,-4.56,-1.36,9.53
27.513744831085205,-8.07,-3.38,-1.59,8.89
27.524011850357056,-8.38,-2.91,-1.67,9.02
27.534939765930176,-8.35,-3.29,-1.34,9.07
27.54397201538086,-7.8,-3.84,-0.76,8.72
27.56312370300293,-7.22,-3.95,-0.47,8.24
27.563915729522705,-6.99,-3.57,-0.39,7.85
27.573936939239502,-6.9,-3.1,-0.33,7.57
27.58519697189331,-6.63,-2.79,-0.25,7.19
27.594100952148438,-5.82,-2.55,0.02,6.35
27.613017797470093,-5.04,-2.07,0.26,5.45
27.613852977752686,-4.52,-1.69,0.32,4.83
27.624157905578613,-4.24,-1.43,0.33,4.48
27.635031700134277,-4.06,-1.09,0.6,4.24
27.644153833389282,-3.54,-0.59,0.91,3.7
27.662943840026855,-2.74,-0.32,1.22,3.01
27.66387701034546,-2.14,-0.15,1.13,2.42
27.674033880233765,-1.93,0.71,0.69,2.16
27.685057878494263,-1.46,1.65,0.62,2.28
27.694186687469482,-0.82,2.7,0.66,2.89
27.712941884994507,-0.1,4.05,0.86,4.14
27.71396493911743,0.86,5.57,0.92,5.71
27.72413969039917,2.54,7.75,1.24,8.24
27.735155820846558,4.94,10.2,1.53,11.43
27.744435787200928,8.03,12.77,1.81,15.19
27.762982845306396,10.59,14.79,1.82,18.28
27.764282703399658,11.98,15.27,1.44,19.46
27.774377822875977,13.36,15.7,2.63,20.78
27.78539276123047,15.47,15.6,3.51,22.24
27.79411268234253,18.0,12.51,1.99,22.01
27.81301975250244,21.49,6.98,1.76,22.66
27.814103841781616,25.03,2.49,5.12,25.66
27.82427978515625,26.33,3.03,6.53,27.29
27.835266828536987,21.72,9.62,5.93,24.48
27.84430694580078,12.89,23.08,4.97,26.89
27.862984895706177,12.1,12.0,6.98,18.41
27.86420774459839,8.33,0.7,-4.56,9.52
27.874250888824463,-7.94,0.97,-13.28,15.5
27.88528299331665,-24.4,-2.5,1.52,24.57
27.89430570602417,-13.76,-1.2,11.86,18.2
27.913171768188477,6.17,4.99,2.33,8.27
27.91425585746765,7.78,2.19,-1.96,8.31
27.924989700317383,5.76,0.18,0.46,5.78
27.935577869415283,4.59,2.22,0.17,5.1
27.94823980331421,5.22,0.86,-0.2,5.29
27.96373176574707,6.53,0.59,0.44,6.57
27.964517831802368,5.63,1.57,-0.84,5.9
27.97484588623047,4.67,0.23,-0.4,4.69
27.98579168319702,3.92,-0.45,-0.43,3.96
27.998295783996582,3.55,-0.13,0.58,3.59
28.0133957862854,2.71,0.25,1.41,3.06
28.014315843582153,0.17,0.05,1.95,1.95
28.024837970733643,-0.97,-0.08,2.12,2.33
28.03574800491333,-0.64,-0.02,1.45,1.58
28.04800581932068,0.22,-0.12,0.95,0.98
28.063268661499023,0.78,0.0,0.04,0.78
28.0645489692688,1.05,0.05,-0.94,1.41
28.074981689453125,1.2,-0.09,-1.47,1.89
28.08573079109192,1.6,-0.03,-1.82,2.42
28.098163843154907,2.13,0.09,-0.91,2.31
28.113407850265503,1.23,0.07,0.22,1.25
28.114539861679077,0.06,0.14,0.66,0.67
28.125183820724487,-0.53,0.14,0.82,0.98
28.135830879211426,-0.84,0.03,0.94,1.26
28.148513793945312,-0.89,0.08,0.61,1.08
28.163465976715088,-0.35,0.07,-0.09,0.36
28.16464900970459,0.46,0.02,-0.54,0.7
28.17512798309326,0.51,-0.06,-0.87,1.01
28.185894012451172,-0.13,0.0,-0.75,0.76
28.19795799255371,-0.63,-0.03,-0.41,0.75
28.213631868362427,-1.17,0.0,0.02,1.17
28.2146258354187,-1.27,0.04,0.49,1.36
28.225071907043457,-0.86,0.04,0.44,0.96
28.23602294921875,-0.79,0.05,-0.11,0.79
28.248257875442505,-0.71,0.12,-0.45,0.84
28.2641818523407,-0.88,0.08,-0.97,1.31
28.26502799987793,-0.6,0.07,-0.71,0.93
28.27534294128418,-0.23,-0.02,-0.1,0.25
28.28623676300049,-0.38,0.02,0.1,0.39
28.29844093322754,-0.61,0.02,0.18,0.63
28.31364870071411,-0.61,0.09,0.12,0.62
28.31477189064026,-0.64,0.03,-0.08,0.64
28.325454711914062,-0.27,0.2,-0.29,0.44
28.336036682128906,0.06,0.26,-0.47,0.54
28.3482608795166,0.0,0.25,-0.55,0.6
28.36379098892212,0.09,0.38,-0.34,0.51
28.364760875701904,0.12,0.25,-0.12,0.3
28.375423908233643,-0.05,0.03,-0.17,0.17
28.386205673217773,-0.67,0.1,-0.01,0.67
28.39812469482422,-1.46,0.33,-0.46,1.56
28.414267778396606,-1.87,1.16,-0.96,2.4
28.415074825286865,-2.3,1.95,-1.21,3.24
28.425468921661377,-2.09,2.05,-0.85,3.04
28.43620491027832,-1.83,1.91,-0.59,2.71
28.448320865631104,-1.73,1.92,-0.65,2.66
28.463546752929688,-1.71,2.35,-0.85,3.02
28.465045928955078,-2.02,2.67,-1.05,3.5
28.475387811660767,-2.13,2.78,-1.19,3.69
28.486174821853638,-1.93,2.61,-1.11,3.43
28.498390674591064,-1.86,2.76,-1.14,3.51
28.513717889785767,-2.19,3.31,-1.29,4.17
28.515137672424316,-2.86,4.37,-1.78,5.51
28.525376796722412,-3.65,5.84,-2.94,7.48
28.536115884780884,-4.51,7.01,-3.5,9.04
28.547805786132812,-5.15,7.6,-3.65,9.87
28.563231945037842,-6.05,8.14,-4.8,11.22
28.56516695022583,-7.37,8.11,-5.6,12.3
28.575562000274658,-9.88,10.11,-5.71,15.24
28.586567878723145,-12.74,15.79,-5.25,20.95
28.598126888275146,-9.79,14.94,-6.33,18.95
28.613881826400757,-7.6,10.47,-6.3,14.38
28.6153507232666,-8.83,7.66,-5.85,13.07
28.625618934631348,-10.58,7.98,-5.86,14.48
28.636359691619873,-9.83,8.12,-5.98,14.08
28.648019790649414,-8.96,7.06,-4.81,12.37
28.66383171081543,-7.4,4.65,-3.4,9.37
28.66545867919922,-4.39,1.4,-3.62,5.85
28.675835847854614,-1.46,-3.18,-6.61,7.47
28.686752796173096,3.34,-6.81,-4.68,8.91
28.69826579093933,3.87,-2.39,-3.69,5.85
28.714141845703125,-5.17,-0.99,-4.79,7.11
28.715378761291504,-12.18,-3.15,-3.64,13.09
28.72574281692505,-12.68,-3.07,-2.21,13.23
28.73664689064026,-10.82,-5.42,-1.98,12.26
28.748278856277466,-8.67,-5.86,-2.14,10.68
28.76427984237671,-6.74,-5.23,-2.09,8.78
28.765448808670044,-5.99,-4.6,-2.54,7.96
28.77593183517456,-6.16,-4.1,-2.78,7.9
28.78671383857727,-6.24,-3.88,-2.46,7.74
28.7985098361969,-6.14,-3.71,-1.72,7.37
28.81437873840332,-6.64,-4.41,-1.1,8.04
28.815440893173218,-7.02,-4.18,-0.86,8.21
28.825918674468994,-6.8,-3.22,-0.61,7.54
28.836768865585327,-6.24,-3.15,-0.34,6.99
28.8484468460083,-5.37,-2.83,-0.42,6.08
28.864099979400635,-4.74,-2.15,-0.32,5.21
28.865657806396484,-4.26,-1.74,-0.13,4.6
28.875940799713135,-3.84,-1.31,-0.09,4.05
28.88670587539673,-3.55,-0.7,0.22,3.62
28.89837884902954,-3.17,-0.21,0.58,3.22
28.913880825042725,-2.51,0.25,0.6,2.59
28.915671825408936,-1.87,0.95,0.53,2.16
28.925737857818604,-1.41,2.14,0.4,2.59
28.936842918395996,-1.14,3.57,0.38,3.76
28.948240756988525,-0.8,5.06,0.57,5.15
28.96435785293579,0.44,6.21,0.67,6.26
28.965967893600464,2.29,7.25,0.97,7.66
28.97593379020691,4.79,8.83,1.35,10.13
28.98708987236023,7.59,11.39,1.34,13.75
28.998472690582275,9.51,13.62,1.36,16.66
29.014586925506592,10.97,14.39,1.03,18.12
29.015946865081787,13.08,14.38,1.77,19.51
29.02594780921936,15.63,13.67,2.23,20.88
29.03692889213562,18.69,11.66,1.12,22.05
29.048476696014404,21.82,7.78,1.45,23.21
29.06414270401001,23.8,4.27,4.61,24.61
29.06601095199585,24.03,3.87,4.82,24.81
29.0760018825531,21.29,13.77,4.45,25.74
29.087023735046387,13.09,22.67,5.32,26.71
29.098408699035645,12.41,7.88,5.23,15.6
29.113971710205078,7.44,-1.07,-7.43,10.56
29.1158390045166,-12.73,1.04,-9.23,15.75
29.12598466873169,-26.71,-2.68,8.16,28.05
29.137032985687256,-5.43,0.33,11.96,13.13
29.148579835891724,11.54,5.3,1.5,12.78
29.164318799972534,9.57,1.67,-1.16,9.78
29.16610288619995,4.22,1.24,0.25,4.4
29.176118850708008,3.21,1.36,-2.2,4.12
29.187241792678833,5.17,-0.85,-0.94,5.32
29.198449850082397,6.24,0.31,0.9,6.31
29.214581966400146,6.27,0.76,-0.22,6.31
29.21606969833374,6.22,0.03,-1.31,6.35
29.226167678833008,4.72,-0.25,-0.01,4.72
29.23719596862793,4.17,-0.13,1.72,4.51
29.248409748077393,1.96,0.32,1.9,2.74
29.264867782592773,-0.73,0.01,2.51,2.61
29.266177892684937,-1.22,-0.12,2.47,2.75
29.276118755340576,-0.49,0.1,1.27,1.36
29.287333965301514,0.43,-0.01,0.07,0.43
29.29837989807129,1.03,-0.14,-1.09,1.5
29.314329862594604,1.44,-0.05,-1.59,2.14
29.316215991973877,1.86,0.06,-1.51,2.39
29.32616090774536,1.99,0.1,-1.55,2.52
29.337304830551147,1.72,0.11,-0.51,1.79
29.348383903503418,0.59,0.13,0.72,0.93
29.36455988883972,-0.57,0.17,1.26,1.39
29.366307735443115,-0.71,0.2,1.49,1.66
29.376161813735962,-0.37,0.12,0.92,0.99
29.387359857559204,0.45,0.14,-0.17,0.5
29.398477792739868,1.01,0.13,-0.84,1.32
29.41472578048706,0.9,0.08,-1.06,1.39
29.41638994216919,0.18,0.0,-0.51,0.54
29.42629885673523,-0.86,-0.06,-0.05,0.86
29.43740677833557,-1.32,-0.02,0.14,1.32
29.448606967926025,-1.2,0.01,0.03,1.2
29.464653968811035,-0.85,0.16,-0.34,0.92
29.466347694396973,-0.52,0.09,-0.84,0.99
29.476321697235107,-0.9,0.03,-1.09,1.41
29.487499713897705,-1.48,0.05,-1.38,2.02
29.498509883880615,-0.9,-0.11,-0.16,0.92
29.514488697052002,-0.77,-0.04,-0.12,0.78
29.51639986038208,-1.0,-0.04,-0.02,1.0
29.52641773223877,-1.22,-0.06,-0.12,1.22
29.537712812423706,-1.15,0.1,-0.06,1.15
29.548340797424316,-0.8,0.24,-0.33,0.89
29.564472675323486,-0.34,0.38,-0.21,0.55
29.566444873809814,-0.01,0.4,-0.21,0.45
29.576496839523315,0.19,0.24,-0.36,0.47
29.587653875350952,0.07,0.16,-0.58,0.6
29.598644733428955,-0.1,0.28,-0.42,0.51
29.614612817764282,-0.62,0.36,-0.26,0.76
29.61651086807251,-1.24,0.6,-0.05,1.37
29.626531839370728,-1.53,0.81,0.04,1.73
29.637650966644287,-1.78,1.11,-0.41,2.13
29.64846897125244,-2.14,1.45,-0.57,2.64
29.664556980133057,-2.42,1.78,-0.63,3.06
29.666772842407227,-2.48,1.84,-0.6,3.14
29.67659282684326,-2.0,1.81,-0.91,2.84
29.68779182434082,-1.6,2.28,-1.47,3.14
29.69841980934143,-1.48,2.63,-1.5,3.37
29.714732885360718,-1.63,2.57,-1.33,3.32
29.716733932495117,-1.73,2.45,-1.09,3.19
29.726715803146362,-2.02,2.47,-0.71,3.26
29.73782968521118,-2.4,2.86,-0.83,3.82
29.748417854309082,-2.81,3.68,-1.01,4.73
29.76492691040039,-3.63,5.23,-2.3,6.76
29.766889810562134,-4.65,6.82,-3.44,8.94
29.77672290802002,-5.34,7.77,-3.83,10.17
29.787866830825806,-5.86,8.23,-4.5,11.05
29.798595905303955,-6.78,8.42,-5.19,11.99
29.81519889831543,-8.53,8.85,-5.58,13.49
29.816734790802002,-13.83,14.71,-4.51,20.68
29.826989889144897,-11.71,16.23,-4.38,20.48
29.83798384666443,-8.01,10.63,-5.51,14.4
29.848803997039795,-7.67,7.82,-4.28,11.76
29.86552882194519,-9.04,7.99,-5.13,13.11
29.866888999938965,-7.2,7.93,-5.59,12.08
