time,ax,ay,az,atotal
0.023980140686035156,0.33,0.12,0.0,0.35
0.024590015411376953,-0.17,-0.03,0.07,0.18
0.025003910064697266,-0.17,-0.03,0.01,0.17
0.030997037887573242,-0.19,0.04,0.01,0.19
0.04103994369506836,-0.15,0.0,-0.02,0.15
0.05120706558227539,-0.04,0.0,-0.04,0.05
0.06121206283569336,0.03,0.01,-0.06,0.06
0.07159900665283203,0.07,-0.02,-0.1,0.12
0.0816490650177002,0.15,-0.04,-0.02,0.15
0.09175825119018555,0.02,0.03,0.02,0.04
0.1019129753112793,-0.01,0.01,-0.03,0.03
0.1116490364074707,-0.05,-0.04,0.01,0.06
0.1217031478881836,-0.04,-0.05,-0.05,0.08
0.1316680908203125,0.07,-0.02,-0.08,0.1
0.14174413681030273,0.07,0.0,-0.04,0.08
0.1519331932067871,0.02,0.01,0.04,0.04
0.16170597076416016,-0.05,0.03,0.05,0.07
0.17183804512023926,-0.07,-0.03,0.05,0.09
0.18166112899780273,-0.05,-0.03,0.07,0.09
0.1917710304260254,-0.09,0.02,0.06,0.11
0.20204710960388184,-0.19,-0.02,0.0,0.19
0.2117319107055664,-0.1,-0.03,-0.04,0.11
0.22188425064086914,-0.04,-0.03,-0.02,0.05
0.23173308372497559,-0.04,-0.01,0.0,0.04
0.24166202545166016,0.01,-0.02,0.0,0.02
0.2516322135925293,0.01,-0.06,0.02,0.06
0.2618751525878906,-0.12,0.05,0.05,0.13
0.271848201751709,-0.15,-0.04,0.03,0.15
0.28181910514831543,-0.07,-0.01,0.03,0.07
0.2918400764465332,-0.06,0.01,0.0,0.06
0.30237412452697754,-0.06,-0.02,0.04,0.07
0.3121309280395508,-0.05,-0.03,0.01,0.05
0.3222341537475586,-0.05,-0.02,0.03,0.06
0.3322300910949707,0.0,0.0,0.05,0.05
0.34232521057128906,0.04,0.0,0.05,0.06
0.35222721099853516,0.02,0.0,-0.01,0.02
0.362062931060791,0.01,0.0,-0.06,0.06
0.3719601631164551,0.01,-0.01,-0.04,0.04
0.38190317153930664,-0.02,0.0,-0.03,0.03
0.3920269012451172,0.01,0.0,-0.03,0.03
0.40195417404174805,0.02,0.0,0.0,0.02
0.41191911697387695,-0.02,0.01,0.02,0.03
0.4219932556152344,-0.02,-0.01,0.02,0.03
0.4321012496948242,-0.03,0.0,0.01,0.03
0.44194602966308594,-0.01,0.0,-0.05,0.05
0.4519791603088379,0.01,0.0,-0.03,0.03
0.46195316314697266,0.03,0.01,-0.06,0.06
0.4719581604003906,0.01,0.01,-0.08,0.08
0.48201513290405273,0.07,0.02,-0.07,0.1
0.49199604988098145,0.08,0.01,-0.02,0.08
0.5020122528076172,0.07,-0.01,0.02,0.07
0.5120792388916016,0.04,0.01,0.03,0.05
0.5220270156860352,0.01,0.01,0.06,0.06
0.532041072845459,-0.01,-0.01,0.02,0.02
0.5420470237731934,0.04,0.02,0.01,0.04
0.5525479316711426,-0.02,0.01,-0.01,0.02
0.5626659393310547,-0.02,-0.02,-0.09,0.09
0.5727050304412842,0.03,-0.01,-0.05,0.05
0.5825650691986084,0.02,0.0,-0.01,0.02
0.5923590660095215,0.04,-0.03,-0.04,0.06
0.6022591590881348,-0.02,0.01,0.03,0.03
0.6121981143951416,0.01,-0.01,-0.01,0.01
0.6221952438354492,0.04,-0.02,-0.05,0.06
0.6322221755981445,0.05,0.0,0.0,0.05
0.642207145690918,-0.07,-0.01,0.02,0.07
0.6523981094360352,-0.14,-0.02,0.01,0.14
0.6623802185058594,-0.07,-0.01,0.03,0.07
0.6723170280456543,-0.05,0.01,0.06,0.07
0.6823329925537109,-0.05,-0.04,0.05,0.08
0.6928162574768066,-0.02,-0.05,-0.03,0.06
0.7024490833282471,0.05,-0.03,-0.09,0.1
0.712399959564209,0.13,0.02,-0.14,0.19
0.722628116607666,0.13,0.03,-0.08,0.15
0.7323811054229736,0.08,-0.06,-0.38,0.39
0.7423810958862305,-0.03,-0.11,0.01,0.11
0.7524700164794922,-0.25,0.07,0.36,0.44
0.7624490261077881,-0.21,0.1,0.29,0.37
0.7724480628967285,-0.13,-0.08,0.19,0.24
0.7823829650878906,0.13,0.07,0.16,0.21
0.7926449775695801,0.37,0.02,-0.11,0.38
0.8057260513305664,0.34,-0.08,-0.38,0.51
0.8133082389831543,0.07,0.06,-0.01,0.09
0.8343830108642578,-0.06,0.03,0.02,0.06
0.8363971710205078,-0.25,-0.11,0.02,0.27
0.842595100402832,-0.32,-0.03,-0.09,0.33
0.8529191017150879,0.0,-0.01,0.01,0.01
0.8627519607543945,0.03,-0.01,0.08,0.08
0.8785700798034668,0.01,0.0,-0.01,0.01
0.8822822570800781,0.03,0.0,0.03,0.04
0.8926360607147217,0.05,0.02,0.02,0.05
0.9028759002685547,0.06,-0.02,0.01,0.06
0.9128561019897461,-0.04,-0.01,-0.01,0.04
0.9248130321502686,-0.15,-0.03,-0.01,0.15
0.9325499534606934,-0.1,-0.02,0.03,0.1
0.9429569244384766,-0.04,0.01,-0.04,0.05
0.9529299736022949,-0.02,0.0,-0.09,0.09
0.962738037109375,0.09,-0.01,-0.01,0.09
0.9754419326782227,0.01,0.01,0.0,0.01
0.9827070236206055,-0.04,-0.01,0.0,0.04
0.992894172668457,-0.02,-0.01,-0.02,0.03
1.0033140182495117,-0.09,-0.01,-0.02,0.09
1.0132951736450195,0.02,-0.01,0.01,0.02
1.0262980461120605,0.05,0.02,-0.01,0.05
1.0328521728515625,0.03,0.02,-0.02,0.04
1.0430700778961182,0.08,0.0,-0.03,0.08
1.0530791282653809,0.08,0.02,0.03,0.08
1.0631260871887207,0.06,0.0,0.01,0.06
1.0768930912017822,0.0,0.0,0.02,0.02
1.0829191207885742,0.0,-0.01,0.01,0.01
1.0931549072265625,0.01,0.01,-0.05,0.05
1.1035809516906738,-0.06,0.0,-0.06,0.08
1.112936019897461,-0.06,-0.01,-0.03,0.06
1.1281180381774902,-0.02,-0.01,-0.03,0.03
1.1326420307159424,-0.01,-0.01,-0.01,0.01
1.143205165863037,0.0,0.0,0.02,0.02
1.1534230709075928,-0.07,-0.01,0.04,0.08
1.1630640029907227,-0.08,-0.01,-0.02,0.08
1.1780400276184082,-0.01,0.0,0.04,0.04
1.182908058166504,-0.07,-0.01,0.02,0.07
1.1933300495147705,-0.01,-0.04,0.01,0.04
1.2032771110534668,0.08,0.0,-0.02,0.08
1.2130789756774902,0.06,0.03,-0.03,0.07
1.2262802124023438,0.08,0.0,-0.03,0.08
1.2332570552825928,0.02,0.01,0.03,0.03
1.243340015411377,-0.01,-0.03,0.06,0.06
1.2537732124328613,-0.06,-0.03,0.07,0.09
1.263118028640747,-0.01,-0.03,0.2,0.2
1.2765779495239258,0.1,-0.01,0.22,0.24
1.2832510471343994,0.13,-0.02,0.39,0.41
1.2934150695800781,0.16,-0.05,0.51,0.53
1.3038501739501953,0.09,-0.08,0.51,0.52
1.313244104385376,-0.21,-0.24,0.69,0.76
1.326733112335205,-0.63,-0.27,0.76,1.02
1.3330650329589844,-0.76,-0.21,0.49,0.92
1.3433830738067627,-0.25,0.01,-0.1,0.26
1.3537449836730957,0.27,0.19,-0.52,0.61
1.3636910915374756,0.64,0.29,-0.8,1.06
1.3777070045471191,0.85,0.23,-0.94,1.28
1.3830630779266357,0.36,0.2,-0.94,1.02
1.3935880661010742,-0.21,0.07,-1.02,1.04
1.4035871028900146,-0.37,0.02,-0.97,1.03
1.4132909774780273,-0.42,0.02,-0.84,0.93
1.4279091358184814,-0.36,0.03,-0.62,0.71
1.433462142944336,-0.24,0.06,-0.38,0.45
1.4437150955200195,0.12,0.12,-0.13,0.21
1.4547250270843506,0.39,0.17,-0.04,0.42
1.4635071754455566,0.52,0.23,-0.11,0.57
1.4788861274719238,0.7,0.22,-0.13,0.74
1.4833810329437256,0.7,0.15,-0.16,0.73
1.4936580657958984,0.45,0.18,-0.27,0.55
1.5039300918579102,0.41,0.27,-0.48,0.68
1.5136752128601074,0.57,0.3,-0.59,0.87
1.5283210277557373,0.77,0.41,-0.72,1.13
1.5336122512817383,0.94,0.51,-0.82,1.34
1.5437440872192383,1.17,0.45,-0.71,1.44
1.5544209480285645,1.28,0.5,-0.64,1.51
1.5639231204986572,1.26,0.51,-0.71,1.53
1.5781171321868896,1.24,1.37,-0.73,1.98
1.5836000442504883,1.43,1.46,-1.02,2.28
1.5937561988830566,1.4,1.41,-1.27,2.35
1.603987216949463,0.88,0.83,-1.67,2.06
1.6136889457702637,0.27,-0.56,-3.06,3.12
1.6271891593933105,-0.21,0.01,-4.53,4.53
1.6334500312805176,0.47,1.85,-3.48,3.96
1.6439151763916016,1.08,1.01,-2.29,2.72
1.6539101600646973,1.26,-0.15,-2.56,2.85
1.6637461185455322,1.73,-0.79,-2.18,2.89
1.6769342422485352,1.7,-0.75,-1.94,2.68
1.6834831237792969,1.84,-0.95,-2.15,2.98
1.693958044052124,2.2,-1.12,-1.95,3.14
1.703711986541748,2.43,-1.12,-1.76,3.2
1.7137432098388672,2.61,-1.04,-1.61,3.23
1.7279109954833984,2.88,-0.99,-1.46,3.37
1.7337660789489746,3.13,-1.13,-1.28,3.56
1.7438640594482422,3.06,-1.33,-1.26,3.56
1.7547950744628906,2.78,-1.49,-1.35,3.43
1.7639811038970947,2.66,-1.51,-1.34,3.33
1.7790112495422363,2.5,-1.48,-1.33,3.19
1.7839350700378418,2.38,-1.19,-1.09,2.87
1.7940690517425537,2.25,-0.74,-0.98,2.56
1.8048839569091797,2.05,-0.22,-0.96,2.27
1.813838005065918,2.08,0.16,-1.02,2.32
1.8286499977111816,2.44,0.32,-1.19,2.73
1.8339672088623047,2.54,0.23,-1.18,2.81
1.8441061973571777,2.25,0.05,-1.24,2.56
1.854572057723999,1.77,-0.17,-1.28,2.19
1.8639979362487793,1.45,-0.62,-1.24,2.0
1.87835693359375,1.18,-0.67,-1.15,1.77
1.8839192390441895,1.14,-0.44,-1.16,1.68
1.8942270278930664,1.32,-0.16,-1.07,1.7
1.904710054397583,1.43,0.16,-0.88,1.68
1.9140830039978027,1.41,0.32,-0.71,1.61
1.9279561042785645,1.31,0.16,-0.56,1.43
1.933804988861084,1.1,-0.08,-0.36,1.16
1.9442660808563232,0.81,-0.21,-0.28,0.88
1.9541049003601074,0.77,-0.22,-0.14,0.81
1.9642729759216309,0.82,-0.15,0.03,0.83
1.9776382446289062,0.77,-0.05,0.12,0.78
1.9841411113739014,0.66,0.1,0.38,0.76
1.9943630695343018,0.39,0.14,0.67,0.78
2.0046730041503906,0.1,-0.05,0.81,0.81
2.0140390396118164,0.1,-0.2,0.84,0.86
2.0290541648864746,0.16,-0.14,0.98,1.0
2.0341949462890625,0.04,-0.03,1.09,1.09
2.044332981109619,-0.42,0.2,1.22,1.3
2.05515718460083,-0.87,0.51,1.24,1.59
2.064466953277588,-0.77,0.78,1.36,1.74
2.079285144805908,-0.42,0.79,1.53,1.77
2.08406400680542,-0.53,0.65,1.54,1.75
2.094430923461914,-0.95,0.71,1.55,1.95
2.104523181915283,-0.81,0.96,1.69,2.1
2.1143012046813965,-1.3,1.25,1.6,2.41
2.1279220581054688,-1.37,1.12,1.8,2.52
2.1345150470733643,-1.27,0.88,1.98,2.51
2.144440174102783,-1.48,1.01,1.89,2.6
2.155064105987549,-1.58,1.15,1.86,2.69
2.1643199920654297,-1.44,1.26,1.84,2.65
2.1808319091796875,-1.48,1.15,1.82,2.61
2.184450149536133,-1.71,0.92,1.71,2.58
2.194498062133789,-1.82,0.79,1.34,2.39
2.204686164855957,-2.02,0.78,1.16,2.45
2.214477062225342,-2.33,0.72,0.91,2.6
2.2284600734710693,-2.63,0.62,0.63,2.77
2.2341830730438232,-2.77,0.52,0.44,2.85
2.2445521354675293,-2.89,0.51,0.37,2.95
2.254518985748291,-3.18,0.46,0.38,3.23
2.2645161151885986,-3.47,0.6,0.27,3.53
2.278223991394043,-3.32,0.84,0.1,3.42
2.2846789360046387,-3.1,1.09,0.07,3.28
2.2947092056274414,-3.14,1.13,0.18,3.34
2.305366039276123,-3.27,0.74,0.43,3.38
2.314517021179199,-3.46,0.34,0.69,3.54
2.3282341957092285,-3.37,0.07,0.93,3.49
2.3345611095428467,-3.77,0.72,1.3,4.05
2.3447680473327637,-5.46,10.52,2.11,12.03
2.3555800914764404,-1.31,0.98,2.91,3.33
2.364650249481201,-2.18,-4.85,0.56,5.34
2.3800790309906006,-2.37,0.34,-0.99,2.59
2.384948253631592,2.37,1.06,-1.35,2.92
2.3951120376586914,7.02,3.02,0.3,7.64
2.4050612449645996,9.41,5.86,4.77,12.06
2.414958953857422,0.5,4.97,3.05,5.85
2.4296889305114746,-5.38,2.54,1.04,6.03
2.4347729682922363,-2.79,-0.85,1.16,3.13
2.4450180530548096,-1.23,-1.64,0.79,2.19
2.4550209045410156,-1.11,-0.54,-0.9,1.52
2.465081214904785,-0.93,0.15,-1.97,2.18
2.4792721271514893,-0.56,-1.05,-2.25,2.54
2.4848861694335938,-0.95,-1.71,-1.43,2.42
2.495190143585205,-1.67,-0.94,-0.59,2.0
2.505005121231079,-1.4,-0.5,0.23,1.5
2.51505708694458,-0.9,0.52,1.3,1.66
2.528869152069092,-0.17,0.69,1.97,2.09
2.5347671508789062,0.01,0.48,1.99,2.04
2.5450549125671387,0.29,0.06,1.18,1.21
2.554978132247925,0.8,-0.22,-0.32,0.88
2.564911127090454,0.1,1.02,-0.93,1.38
2.578463077545166,-0.62,0.74,-1.7,1.95
2.584649085998535,-0.11,-0.65,-2.04,2.14
2.595097064971924,-0.05,-0.68,-1.02,1.22
2.6057991981506348,-0.75,0.26,-0.06,0.79
2.6149392127990723,-0.21,0.39,0.52,0.68
2.628073215484619,0.18,0.17,0.93,0.96
2.6349940299987793,-0.16,0.2,0.67,0.71
2.6452150344848633,-0.4,0.22,-0.04,0.45
2.6558332443237305,-0.52,0.01,-0.42,0.66
2.6652021408081055,-0.59,-0.05,-0.34,0.68
2.678471088409424,-0.11,0.05,-0.13,0.17
2.685041904449463,0.19,0.05,-0.36,0.41
2.6951920986175537,0.41,0.02,-0.04,0.41
2.705821990966797,0.49,0.11,-0.08,0.5
2.7151360511779785,0.42,0.01,-0.15,0.44
2.7291500568389893,0.41,0.02,-0.04,0.41
2.7348921298980713,0.45,0.11,-0.2,0.5
2.7453742027282715,0.38,-0.02,0.11,0.39
2.7554402351379395,0.08,-0.16,0.22,0.28
2.7651572227478027,-0.05,-0.05,0.2,0.21
2.780454158782959,-0.02,-0.01,0.19,0.19
2.7851810455322266,0.15,-0.08,0.2,0.26
2.7953920364379883,0.19,-0.11,0.19,0.29
2.8060102462768555,0.21,-0.09,0.33,0.4
2.815378189086914,0.15,-0.06,0.25,0.29
2.829185962677002,0.09,-0.06,0.24,0.26
2.8355491161346436,-0.15,-0.1,0.22,0.28
2.8454999923706055,-0.28,-0.05,0.21,0.35
2.856174945831299,-0.46,-0.07,0.07,0.47
2.865365982055664,-0.56,-0.04,0.09,0.56
2.879441022872925,-0.38,-0.03,0.07,0.38
2.8853039741516113,-0.21,-0.02,0.02,0.21
2.8955841064453125,-0.01,0.16,0.04,0.16
2.9066340923309326,0.2,0.31,0.08,0.37
2.9152660369873047,0.21,0.19,0.25,0.37
2.930446147918701,0.19,0.39,0.01,0.43
2.9353530406951904,0.24,0.49,0.07,0.55
2.945491075515747,0.2,0.35,-0.14,0.42
2.9569320678710938,0.5,0.65,-0.2,0.84
2.9654269218444824,0.78,0.6,-0.28,1.02
2.9793851375579834,0.61,0.41,-0.57,0.93
2.985291004180908,0.87,0.56,-0.48,1.14
2.995664119720459,1.33,0.78,-0.51,1.62
3.0065081119537354,1.67,0.89,-0.53,1.96
3.015444040298462,1.77,0.8,-0.52,2.01
3.029595136642456,1.66,0.91,-0.28,1.91
3.0355029106140137,1.59,0.95,-0.21,1.86
3.0455820560455322,1.42,0.87,-0.03,1.66
3.0564520359039307,1.45,0.91,0.07,1.71
3.0656180381774902,1.42,0.98,0.02,1.72
3.079745054244995,1.37,0.87,0.01,1.62
3.085577964782715,1.27,0.82,-0.23,1.52
3.095771074295044,0.99,1.07,-0.51,1.54
3.1065011024475098,1.09,1.4,-0.66,1.89
3.115657091140747,1.73,2.12,-1.04,2.92
3.1299362182617188,2.17,3.0,-1.72,4.08
3.1354241371154785,2.28,3.36,-1.71,4.4
3.145781993865967,3.0,3.8,-1.48,5.06
3.1566381454467773,4.09,4.64,-1.61,6.39
3.165627956390381,5.13,5.64,-1.19,7.71
3.181962013244629,5.54,5.92,-0.69,8.13
3.1853320598602295,5.4,5.27,-0.09,7.54
3.1958401203155518,4.65,4.48,-0.16,6.45
3.2064199447631836,3.77,3.94,-0.35,5.46
3.215801239013672,2.28,4.35,-0.19,4.91
3.2307162284851074,0.21,4.38,-1.04,4.5
3.2355480194091797,-1.01,3.62,-1.5,4.04
3.2459990978240967,0.76,2.86,-1.81,3.46
3.256549119949341,7.1,0.74,-2.56,7.58
3.2658329010009766,9.39,-3.39,-1.68,10.12
3.2802019119262695,9.44,-6.42,-2.59,11.7
3.285891056060791,8.87,-5.14,-2.47,10.54
3.2960681915283203,8.21,-2.5,-0.66,8.6
3.3073019981384277,10.24,-1.89,-1.19,10.48
3.3158740997314453,11.09,-1.77,-0.93,11.26
3.3304951190948486,9.91,-1.34,-0.3,10.0
3.3359761238098145,8.64,-1.12,-0.35,8.71
3.3460822105407715,7.62,-1.43,-0.21,7.75
3.356804132461548,6.92,-0.88,-0.41,6.98
3.365969181060791,6.51,0.04,-0.65,6.54
3.3802781105041504,5.97,0.48,-0.87,6.05
3.385857105255127,5.3,0.83,-1.1,5.47
3.3960540294647217,5.1,1.02,-1.31,5.36
3.4074201583862305,4.85,1.23,-1.33,5.17
3.416409969329834,4.56,1.12,-1.3,4.87
3.4325010776519775,4.49,0.84,-1.13,4.7
3.436100959777832,4.28,0.91,-0.77,4.44
3.4464101791381836,4.15,0.74,-0.58,4.25
3.4569129943847656,4.05,0.78,-0.42,4.14
3.466032028198242,4.05,0.99,-0.35,4.18
3.481441020965576,3.59,1.07,-0.24,3.75
3.486422061920166,2.83,0.84,-0.4,2.97
3.4964680671691895,2.25,0.81,-0.45,2.43
3.5083041191101074,1.6,0.78,-0.46,1.83
3.51648211479187,0.7,0.85,-0.62,1.26
3.532839059829712,0.06,0.9,-0.81,1.21
3.53629207611084,-0.1,0.76,-1.12,1.35
3.5461339950561523,-0.27,1.01,-1.15,1.55
3.5568699836730957,-1.04,1.64,-0.9,2.14
3.5660860538482666,-1.35,1.29,-0.96,2.09
3.581221103668213,-1.73,1.09,-0.78,2.18
3.5860681533813477,-1.99,1.2,-0.58,2.39
3.596449136734009,-2.24,1.21,-0.43,2.58
3.6068780422210693,-2.15,1.08,-0.2,2.41
3.6162819862365723,-2.08,1.38,0.21,2.5
3.6300301551818848,-2.83,1.67,0.61,3.34
3.636117935180664,-3.64,1.36,1.1,4.03
3.6464741230010986,-4.19,1.24,1.35,4.57
3.656765937805176,-4.28,1.39,1.43,4.72
3.666348934173584,-3.9,1.78,1.71,4.61
3.6801891326904297,-3.71,2.36,1.95,4.81
3.6863200664520264,-4.27,3.75,2.47,6.19
3.696445941925049,-4.29,3.53,2.81,6.22
3.707520008087158,-4.33,2.45,2.77,5.69
3.7162909507751465,-4.95,3.5,2.66,6.62
3.7304811477661133,-5.47,4.0,2.6,7.25
3.736402988433838,-5.9,3.72,2.25,7.32
3.7466061115264893,-6.32,3.64,2.34,7.65
3.7575790882110596,-7.27,3.22,2.53,8.34
3.766508102416992,-8.24,2.86,2.36,9.03
3.7804369926452637,-8.82,2.93,2.12,9.53
3.786489963531494,-9.41,3.25,1.79,10.11
3.796658992767334,-9.52,4.26,1.69,10.56
3.8076441287994385,-9.73,3.91,1.53,10.59
3.8164970874786377,-10.75,3.69,1.48,11.46
3.830526113510132,-10.78,4.2,1.47,11.66
3.8366551399230957,-10.47,4.36,1.14,11.39
3.8467302322387695,-10.27,3.87,0.36,10.98
3.8581972122192383,-9.24,3.01,-1.83,9.88
3.8665530681610107,-3.98,-1.2,-9.52,10.38
3.882465124130249,4.25,5.82,-9.41,11.85
3.8866851329803467,15.21,17.42,6.71,24.07
3.8967790603637695,5.11,7.88,5.76,11.01
3.9082961082458496,-7.65,-0.12,0.01,7.65
3.9166250228881836,-4.29,-1.37,-0.35,4.51
3.932523250579834,-4.29,-1.81,1.38,4.85
3.936690092086792,-4.6,-0.37,0.42,4.63
3.946959972381592,-3.36,0.4,-0.38,3.4
3.958442211151123,-2.97,0.06,0.6,3.03
3.966794967651367,-2.52,-0.69,-0.26,2.62
3.982296943664551,-2.21,-1.96,-1.77,3.44
3.9867911338806152,-3.16,0.0,-0.15,3.16
3.9969120025634766,-2.04,2.44,0.97,3.32
4.008551120758057,0.61,0.66,0.49,1.02
4.016765117645264,0.98,-0.69,-0.36,1.25
4.032799243927002,0.12,-0.25,0.4,0.48
4.036755084991455,-0.47,0.71,0.38,0.93
4.046907901763916,-0.88,0.18,-1.09,1.41
4.058674097061157,-1.06,-0.41,-0.94,1.47
4.066946983337402,-0.69,-0.07,-0.03,0.69
4.081944942474365,0.24,0.2,0.51,0.59
4.0869879722595215,0.36,0.21,0.13,0.43
4.097092151641846,-0.11,0.04,0.09,0.14
4.108034133911133,-0.3,-0.03,0.19,0.35
4.116835117340088,-0.45,0.05,0.09,0.46
4.132066249847412,-0.45,0.06,0.09,0.46
4.136709213256836,-0.44,-0.06,0.02,0.44
4.1471030712127686,-0.41,-0.09,0.3,0.51
4.157495975494385,-0.4,-0.14,0.3,0.51
4.167511940002441,-0.19,-0.25,0.15,0.34
4.184619903564453,0.17,-0.28,-0.09,0.33
4.186760902404785,0.23,-0.16,-0.08,0.29
4.197190046310425,0.13,-0.1,0.21,0.26
4.207683086395264,0.27,-0.05,0.08,0.28
4.217024087905884,0.16,-0.1,0.04,0.19
4.234742164611816,-0.31,-0.29,0.3,0.51
4.236728191375732,-0.85,-0.46,0.45,1.06
4.247365951538086,-0.93,-0.57,0.32,1.13
4.257874011993408,-0.64,-0.51,0.19,0.84
4.267273902893066,-0.11,-0.4,-0.33,0.53
4.281973123550415,0.18,0.09,-0.87,0.89
4.286821126937866,0.34,0.39,0.18,0.54
4.297263145446777,0.35,0.43,0.38,0.67
4.30782413482666,-0.01,0.49,0.5,0.7
4.317151069641113,-0.28,0.47,0.45,0.7
4.331666946411133,-0.13,0.41,-0.03,0.43
4.337278127670288,0.01,0.32,-0.32,0.45
4.347462177276611,0.33,0.22,-0.23,0.45
4.358843088150024,0.66,0.3,-0.11,0.73
4.367347240447998,1.19,0.55,0.12,1.31
4.382648944854736,1.41,0.5,-0.05,1.49
4.387391090393066,1.35,0.57,-0.22,1.48
4.397519111633301,1.22,0.49,-0.55,1.42
4.408565998077393,1.33,0.57,-0.68,1.59
4.417365074157715,1.34,0.76,-0.79,1.73
4.4310479164123535,1.61,0.71,-0.9,1.97
4.437150955200195,1.59,0.64,-0.86,1.91
4.447443962097168,1.5,0.92,-0.77,1.92
4.458393096923828,1.26,1.09,-0.76,1.83
4.467839241027832,1.04,1.1,-0.75,1.68
4.482398986816406,1.15,1.23,-0.69,1.81
4.487594127655029,1.36,1.37,-0.61,2.02
4.497866153717041,1.63,1.66,-0.66,2.41
4.508579254150391,1.74,2.15,-0.54,2.81
4.51781702041626,1.82,2.3,-0.45,2.96
4.5324201583862305,2.18,2.64,-0.52,3.46
4.537255048751831,2.64,3.32,-0.85,4.32
4.547784090042114,3.15,3.22,-1.33,4.69
4.558434963226318,3.23,3.36,-1.54,4.9
4.567482948303223,3.72,3.23,-2.08,5.34
4.583620071411133,4.65,2.83,-3.01,6.22
4.587496042251587,5.06,3.59,-2.76,6.79
4.59770393371582,5.12,4.28,-1.75,6.89
4.608974933624268,5.44,4.72,-1.0,7.27
4.617578983306885,6.16,4.58,-0.98,7.73
4.632026195526123,6.84,3.11,-0.76,7.55
4.637555122375488,5.82,1.7,-0.77,6.11
4.647824048995972,1.6,2.42,-1.51,3.27
4.659008979797363,-1.58,4.45,-1.73,5.02
4.667741060256958,-3.08,4.95,-3.6,6.85
4.68229603767395,-0.47,1.85,-4.31,4.71
4.68776798248291,7.57,-0.96,-5.29,9.28
4.6979241371154785,8.5,-2.96,-4.55,10.08
4.7091100215911865,6.97,-3.16,-4.32,8.78
4.71776819229126,6.97,-2.49,-4.07,8.44
4.7327561378479,8.57,-2.88,-3.94,9.86
4.73759913444519,11.15,-3.82,-3.68,12.34
4.747931003570557,10.53,-3.96,-2.86,11.6
4.758559226989746,9.21,-3.21,-2.92,10.18
4.767836093902588,8.67,-2.47,-2.39,9.32
4.783610105514526,8.45,-1.99,-1.44,8.79
4.788002967834473,8.46,-1.98,-1.17,8.76
4.798020124435425,8.61,-1.87,-1.16,8.88
4.809750080108643,8.48,-0.97,-0.93,8.58
4.818011045455933,7.86,0.29,-0.68,7.89
4.8346052169799805,7.05,0.6,-0.8,7.12
4.837444067001343,5.98,0.15,-1.24,6.1
4.848165988922119,4.62,-0.15,-1.98,5.02
4.8586859703063965,3.81,-0.23,-2.51,4.56
4.867900133132935,3.18,0.35,-2.64,4.14
4.882913112640381,2.26,0.77,-2.97,3.81
4.8879311084747314,1.47,1.25,-3.1,3.65
4.8980631828308105,0.86,1.53,-3.05,3.51
4.9096269607543945,0.47,1.55,-2.84,3.26
4.917878150939941,0.25,1.48,-2.59,2.99
4.933609962463379,-0.1,1.44,-2.27,2.69
4.9378790855407715,-0.37,1.44,-1.86,2.38
4.9482269287109375,-0.51,1.23,-1.71,2.16
4.960065126419067,-0.7,1.4,-1.26,2.0
4.968061923980713,-0.83,1.22,-1.18,1.88
4.982895135879517,-0.96,1.42,-0.89,1.93
4.987817049026489,-1.06,1.58,-0.55,1.98
4.998164176940918,-1.19,1.77,-0.38,2.16
5.008951187133789,-1.5,1.89,-0.36,2.43
5.017980098724365,-1.83,2.02,-0.37,2.75
5.033048152923584,-2.2,2.26,-0.27,3.16
5.038163185119629,-3.0,2.68,0.08,4.02
5.048280239105225,-4.08,2.96,0.42,5.05
5.059638023376465,-4.91,2.98,0.81,5.8
5.06829309463501,-5.12,3.66,1.44,6.45
5.082749128341675,-4.82,4.47,1.71,6.79
5.088129043579102,-4.83,3.64,2.15,6.41
5.098423004150391,-5.36,4.33,2.41,7.29
5.109961986541748,-5.71,4.77,2.67,7.9
5.1182310581207275,-6.15,5.14,2.71,8.46
5.13402795791626,-6.48,5.19,2.82,8.76
5.1382670402526855,-6.81,4.89,3.18,8.96
5.148313045501709,-7.46,4.57,3.19,9.31
5.1597700119018555,-8.38,4.46,2.95,9.94
5.168555021286011,-8.99,4.35,2.72,10.35
5.1832051277160645,-8.93,3.76,2.57,10.02
5.188257217407227,-9.01,3.31,2.5,9.91
5.198476076126099,-9.44,3.28,2.24,10.24
5.210090160369873,-9.85,3.67,1.99,10.69
5.218377113342285,-10.15,4.06,1.91,11.09
5.235074996948242,-9.09,8.01,2.08,12.29
5.238356113433838,-7.01,5.61,2.81,9.4
5.248395919799805,-9.15,4.05,2.13,10.23
5.259473085403442,-10.02,3.32,1.07,10.6
5.268630027770996,-8.7,-1.04,0.66,8.78
5.2827911376953125,-3.75,-2.01,-2.17,4.77
5.288229942321777,4.49,-0.13,-8.59,9.69
5.2986369132995605,19.13,10.94,-0.51,22.04
5.309704065322876,15.84,14.8,9.79,23.78
5.3185460567474365,-10.43,5.84,4.66,12.82
5.333130121231079,-9.48,-2.78,-2.9,10.29
5.3381781578063965,-4.6,-1.76,-1.81,5.24
5.3486950397491455,-3.52,0.12,0.79,3.6
5.360013961791992,-2.77,-0.03,-0.73,2.86
5.368594169616699,-0.95,-0.49,-1.49,1.83
5.382524013519287,-0.37,-0.17,0.09,0.41
5.388714075088501,-0.83,-0.9,-0.04,1.22
5.398859024047852,-1.68,-1.58,-0.65,2.39
5.410917043685913,-3.84,1.58,0.45,4.17
5.4186110496521,-2.81,1.64,1.21,3.47
5.433609962463379,-0.1,-0.44,0.68,0.81
5.438894033432007,0.89,-0.7,0.35,1.18
5.448831081390381,0.56,-0.08,0.52,0.76
5.460303068161011,0.02,-0.09,0.28,0.29
5.468767166137695,-1.36,0.01,-0.22,1.37
5.483566045761108,-2.19,-0.14,-0.41,2.23
5.488938093185425,-2.08,-0.21,-0.52,2.15
5.499029159545898,-1.66,-0.03,0.1,1.66
5.5102739334106445,-1.08,0.15,0.57,1.23
5.518878936767578,-0.5,0.17,0.59,0.79
5.534367084503174,-0.19,0.14,0.59,0.63
5.538800239562988,-0.36,0.1,0.4,0.54
5.548945903778076,-0.55,0.08,0.0,0.55
5.560060024261475,-0.35,0.0,-0.24,0.42
5.568950176239014,0.07,-0.01,-0.4,0.4
5.584895133972168,0.43,0.04,-0.06,0.43
5.588890075683594,0.74,0.06,-0.13,0.75
5.5990540981292725,1.09,0.02,-0.23,1.11
5.610559940338135,1.21,0.05,0.02,1.21
5.618794918060303,1.06,0.06,-0.28,1.09
5.63327693939209,1.07,0.03,-0.53,1.19
5.638720989227295,1.07,0.13,-0.5,1.18
5.649138927459717,0.8,0.08,-0.65,1.03
5.660665988922119,0.39,-0.02,-0.38,0.54
5.668965101242065,0.24,0.09,-0.31,0.4
5.683159112930298,0.2,0.06,0.0,0.2
5.688971996307373,0.37,-0.05,-0.02,0.37
5.699124097824097,0.34,0.08,0.07,0.35
5.710698127746582,0.17,0.13,0.22,0.3
5.71915602684021,0.16,0.1,-0.03,0.19
5.7337141036987305,0.1,0.15,-0.09,0.2
5.738790035247803,0.11,0.22,-0.28,0.37
5.749341011047363,-0.03,0.12,-0.42,0.43
5.760082244873047,-0.38,0.05,-0.44,0.58
5.769289016723633,-0.31,0.11,-0.34,0.47
5.783821105957031,-0.17,-0.02,0.0,0.17
5.789262056350708,0.36,0.46,0.54,0.79
5.79927396774292,1.25,0.63,0.61,1.52
5.810787200927734,1.53,0.54,0.03,1.62
5.818968057632446,1.45,0.65,0.03,1.58
5.833482027053833,1.3,0.59,-0.45,1.49
5.839160919189453,1.24,0.68,-0.6,1.53
5.84949803352356,1.31,0.69,-1.0,1.78
5.860886096954346,1.38,0.92,-1.15,2.01
5.869282245635986,1.45,1.16,-1.05,2.13
5.883835077285767,1.49,1.19,-0.96,2.13
5.889136075973511,1.75,1.59,-0.62,2.44
5.8994221687316895,2.16,1.89,-0.56,2.92
5.911448955535889,2.49,2.39,-0.92,3.57
5.91925311088562,2.72,3.24,-1.6,4.52
5.9348649978637695,2.82,4.43,-1.87,5.57
5.939042091369629,3.36,4.9,-1.61,6.15
5.949352025985718,3.96,5.09,-1.82,6.7
5.960406064987183,4.53,4.92,-1.97,6.97
5.969263076782227,5.25,5.13,-1.42,7.47
5.983932018280029,5.85,4.3,-1.79,7.47
5.989242076873779,5.95,3.04,-2.91,7.28
5.999617099761963,5.78,3.88,-2.61,7.43
6.011035919189453,5.97,4.28,-2.63,7.8
6.019608020782471,4.8,4.04,-2.99,6.94
6.0342490673065186,1.97,2.78,-2.46,4.2
6.0393431186676025,0.84,2.31,-4.9,5.48
6.0495100021362305,0.36,1.28,-8.09,8.19
6.061087131500244,3.18,-1.95,-7.0,7.93
6.069494247436523,8.5,-4.9,-3.76,10.5
6.08400297164917,8.56,-5.16,-3.65,10.64
6.089763164520264,7.2,-4.51,-3.47,9.17
6.099632024765015,8.04,-4.18,-3.15,9.59
6.1116180419921875,10.22,-4.59,-2.88,11.56
6.119502067565918,9.26,-4.31,-1.76,10.36
6.135003089904785,8.05,-3.75,-2.1,9.12
6.139211177825928,7.6,-2.88,-1.75,8.31
6.149710178375244,7.38,-2.21,-0.92,7.75
6.161273002624512,7.11,-1.94,-0.95,7.43
6.1696600914001465,6.62,-1.73,-0.99,6.91
6.183810234069824,5.83,-1.47,-0.89,6.07
6.189556121826172,5.08,-1.02,-1.11,5.29
6.19973611831665,4.46,-0.38,-1.36,4.67
6.211754083633423,3.82,0.15,-1.51,4.11
6.219681024551392,3.17,0.41,-1.66,3.6
6.236988067626953,2.67,0.64,-1.72,3.23
6.239443063735962,2.21,0.84,-1.67,2.89
6.249531030654907,1.87,0.76,-1.6,2.57
6.260952949523926,1.69,0.64,-1.33,2.24
6.269717216491699,1.61,0.92,-0.97,2.09
6.284635066986084,1.44,1.26,-0.72,2.04
6.289430141448975,1.05,1.61,-0.47,1.97
6.299904108047485,0.09,1.77,-0.25,1.78
6.3110032081604,0.33,1.49,-0.27,1.54
6.319828033447266,0.16,1.98,0.12,1.99
6.333661079406738,-0.38,2.01,0.23,2.05
6.339724063873291,-0.52,1.35,0.4,1.5
6.349974155426025,-0.74,0.79,0.55,1.21
6.361094951629639,-0.75,1.0,0.5,1.34
6.3697991371154785,-0.64,1.71,0.33,1.85
6.38450813293457,-0.71,1.63,0.01,1.77
6.38951301574707,-1.19,1.74,0.03,2.1
6.4000020027160645,-2.17,4.25,0.76,4.83
6.411974906921387,-1.7,4.37,0.67,4.73
6.419928073883057,-2.64,1.27,1.62,3.34
6.43541407585144,-4.32,1.71,2.26,5.16
6.439698219299316,-4.13,2.16,2.82,5.44
6.450041055679321,-3.0,2.58,2.49,4.67
6.461709976196289,-2.62,2.87,2.45,4.59
6.469928026199341,-2.65,2.92,2.74,4.8
6.484949111938477,-2.94,2.5,3.01,4.89
6.490025997161865,-3.6,3.05,3.03,5.6
6.50040602684021,-4.27,3.48,3.01,6.27
6.511717081069946,-4.14,3.57,3.0,6.23
6.520406246185303,-4.02,3.65,2.9,6.15
6.536014080047607,-4.76,3.88,2.54,6.64
6.540338039398193,-5.61,3.94,2.08,7.16
6.550471067428589,-6.55,4.05,1.84,7.91
6.562741041183472,-7.47,3.96,1.51,8.58
6.570402145385742,-8.12,3.77,1.15,9.02
6.586400985717773,-8.55,3.93,1.15,9.47
6.589942932128906,-9.05,4.24,1.46,10.1
6.600297927856445,-9.62,4.64,1.62,10.8
6.611410140991211,-8.67,6.52,1.88,11.0
6.620244026184082,-7.78,3.89,2.27,8.98
6.63593602180481,-9.07,4.5,1.56,10.24
6.6400861740112305,-8.56,5.51,0.95,10.22
6.650318145751953,-7.73,3.69,0.93,8.61
6.661466121673584,-6.51,-1.5,-0.69,6.71
6.6702799797058105,-0.84,-0.37,-3.2,3.32
6.685075044631958,13.18,7.48,-4.8,15.89
6.690040111541748,17.58,8.74,3.33,19.91
6.700536251068115,-1.13,6.81,7.08,9.88
6.712134122848511,-11.1,1.53,2.32,11.44
6.720322132110596,-7.08,-0.79,-0.41,7.13
6.7351720333099365,-2.24,1.92,-0.68,3.02
6.740296125411987,-2.86,0.43,-0.62,2.95
6.750470161437988,-2.84,-1.29,-0.21,3.12
6.762231111526489,-1.67,-1.38,-0.85,2.32
6.770304203033447,-1.16,-0.33,-1.6,2.0
6.785098075866699,-1.89,0.62,-1.22,2.33
6.790090084075928,-3.04,0.57,-0.3,3.1
6.800542116165161,-3.32,1.05,0.55,3.52
6.8125481605529785,-1.74,-0.12,1.0,2.01
6.820422172546387,-0.34,-0.42,1.41,1.5
6.835206031799316,0.51,0.17,1.75,1.83
6.840383052825928,0.52,0.21,1.84,1.92
6.850674152374268,0.13,0.28,1.12,1.16
6.862214088439941,-0.22,0.21,0.07,0.31
6.870571136474609,-0.5,-0.15,-0.93,1.06
6.886277198791504,-0.91,-0.42,-1.45,1.76
6.890207052230835,-1.31,-0.06,-1.37,1.89
6.90070915222168,-1.22,0.1,-0.89,1.51
6.911781072616577,-0.71,0.04,-0.2,0.73
6.920409202575684,-0.05,0.04,0.35,0.35
6.935867071151733,0.59,0.0,0.74,0.94
6.940288066864014,0.69,-0.03,0.89,1.12
6.950652122497559,0.49,0.1,0.72,0.87
6.962449073791504,0.31,0.05,0.3,0.43
6.970606088638306,0.01,-0.09,-0.16,0.18
6.985208034515381,-0.27,-0.17,-0.5,0.59
6.9904279708862305,-0.16,-0.02,-0.67,0.68
7.00081205368042,0.05,-0.09,-0.52,0.53
7.012564182281494,0.15,-0.03,-0.42,0.44
7.020703077316284,0.54,0.11,-0.29,0.62
7.035727024078369,0.52,0.03,0.15,0.54
7.0405659675598145,0.29,0.02,0.04,0.29
7.05088996887207,0.57,0.04,-0.37,0.68
7.062648057937622,0.42,-0.01,-0.05,0.42
7.070775985717773,-0.24,0.01,0.2,0.31
7.0858941078186035,-0.06,0.04,-0.12,0.13
7.090566158294678,0.13,-0.03,-0.05,0.14
7.100858211517334,0.21,-0.03,0.22,0.3
7.111958026885986,0.66,0.06,-0.07,0.66
7.120984077453613,0.74,0.0,-0.34,0.81
7.1363911628723145,0.39,0.02,-0.26,0.46
7.140635013580322,0.46,0.12,-0.45,0.65
7.151008129119873,0.7,0.14,-0.77,1.05
7.162205219268799,0.14,0.11,-0.7,0.72
7.170906066894531,0.16,0.15,-0.34,0.4
7.186254024505615,0.41,0.09,-0.53,0.67
7.190638065338135,0.23,0.0,-0.35,0.41
7.201120138168335,0.46,0.08,-0.44,0.64
7.212255954742432,1.09,0.23,-0.79,1.36
7.220966100692749,1.07,0.56,-0.92,1.51
7.23784613609314,0.83,0.44,-0.41,1.02
7.240777969360352,0.93,0.29,-0.86,1.29
7.251410961151123,0.89,0.36,-0.84,1.27
7.2625322341918945,1.14,0.31,-0.55,1.3
7.271125078201294,0.88,0.43,-0.82,1.27
7.287806034088135,0.34,0.44,-1.02,1.16
7.290750026702881,0.22,0.25,-0.93,0.98
7.3013200759887695,0.71,1.6,0.44,1.8
7.312538146972656,1.41,1.44,0.29,2.03
7.3211469650268555,1.57,1.14,0.31,1.96
7.3356311321258545,1.61,1.82,0.53,2.48
7.340773105621338,1.93,2.51,0.1,3.16
7.351262092590332,2.38,3.13,-0.59,3.97
7.363162040710449,2.82,3.81,-0.95,4.83
7.371166229248047,3.1,4.02,-1.04,5.18
7.385826110839844,3.67,4.09,-1.23,5.63
7.390918254852295,4.09,3.95,-1.57,5.89
7.401363134384155,4.1,3.75,-1.47,5.74
7.413151025772095,3.87,4.1,-1.45,5.82
7.4212541580200195,4.32,5.19,-1.91,7.01
7.436033248901367,6.26,6.92,-2.68,9.7
7.440995216369629,8.18,7.57,-3.29,11.62
7.451396942138672,9.12,7.76,-4.04,12.63
7.463227033615112,7.41,2.94,-5.54,9.7
7.471295118331909,3.61,2.96,-4.04,6.17
7.4862799644470215,0.11,5.08,-3.74,6.3
7.491262912750244,-1.74,5.16,-5.75,7.91
7.501715183258057,0.66,1.89,-6.64,6.93
7.5141119956970215,6.12,-0.53,-6.68,9.07
7.521697998046875,7.36,-1.73,-6.65,10.06
7.538733005523682,6.03,-3.45,-4.9,8.5
7.54151725769043,4.89,-4.44,-4.14,7.79
7.551837921142578,7.2,-4.92,-5.29,10.19
7.563283920288086,9.34,-6.09,-4.12,11.88
7.571784019470215,9.13,-6.43,-3.18,11.61
7.587818145751953,7.85,-5.86,-3.2,10.3
7.591630935668945,7.27,-5.35,-3.06,9.53
7.6019182205200195,7.24,-4.83,-2.04,8.93
7.613492012023926,7.04,-4.58,-1.67,8.56
7.621857166290283,6.82,-3.93,-1.55,8.02
7.636831045150757,6.78,-3.28,-1.3,7.64
7.641268253326416,6.54,-2.79,-1.25,7.21
7.651430130004883,5.85,-2.47,-1.64,6.55
7.663069248199463,4.87,-2.17,-2.25,5.78
7.671428203582764,3.69,-1.44,-2.51,4.68
7.686185121536255,2.19,-0.68,-3.0,3.77
7.691375255584717,1.02,-0.04,-3.52,3.66
7.701817035675049,0.4,0.66,-3.71,3.78
7.713046073913574,0.17,1.18,-3.74,3.92
7.721617221832275,0.18,1.46,-3.39,3.69
7.736454963684082,0.28,1.47,-2.82,3.19
7.741393089294434,0.09,1.21,-2.19,2.5
7.751893997192383,-0.14,1.11,-1.7,2.03
7.761582136154175,-0.09,1.15,-1.37,1.79
7.772809028625488,0.07,1.12,-0.9,1.43
7.781650066375732,0.02,1.09,-0.53,1.21
7.791702032089233,-0.14,1.16,-0.26,1.19
7.801924228668213,-0.28,1.17,-0.08,1.2
7.814288139343262,-0.41,1.52,0.13,1.57
7.821605205535889,-0.41,1.85,0.34,1.92
7.837418079376221,-0.41,2.02,0.56,2.13
7.841548919677734,-0.63,2.5,0.86,2.71
7.852024078369141,-1.0,3.18,1.31,3.58
7.8641040325164795,-1.21,3.36,1.52,3.88
7.8718671798706055,-1.06,3.34,1.75,3.91
7.887495040893555,-0.85,3.49,1.99,4.1
7.891509056091309,-0.9,3.81,2.31,4.54
7.902178049087524,-1.24,4.02,2.73,5.01
7.911803245544434,-1.67,4.47,3.16,5.72
7.923409938812256,-1.95,5.36,3.4,6.64
7.931835174560547,-2.03,5.84,3.37,7.04
7.941886901855469,-2.15,6.17,3.2,7.27
7.952113151550293,-2.74,6.46,3.23,7.72
7.964627027511597,-4.23,5.9,2.78,7.77
7.971982002258301,-6.14,5.0,1.81,8.12
7.987665176391602,-7.71,4.48,1.12,8.98
7.9918341636657715,-8.43,4.05,1.02,9.4
8.002113103866577,-8.21,4.13,1.81,9.36
8.013644218444824,-7.68,4.67,2.18,9.24
8.021997928619385,-7.47,4.83,2.1,9.14
8.037917137145996,-7.52,4.71,2.53,9.22
8.042006015777588,-6.98,4.69,3.14,8.97
8.052231073379517,-6.44,4.5,3.18,8.47
8.064564228057861,-6.25,4.03,3.26,8.11
8.072227001190186,-5.87,3.66,3.51,7.75
8.087739944458008,-5.8,3.93,3.51,7.83
8.092095136642456,-5.48,10.72,3.5,12.53
8.102230072021484,-1.31,8.24,5.1,9.77
8.11253023147583,-1.81,0.82,4.43,4.85
8.124529123306274,-2.14,1.64,0.25,2.7
8.132142066955566,-0.55,2.93,-0.21,2.98
8.142073154449463,4.25,1.04,-2.43,5.0
8.15229606628418,11.09,-0.4,-4.69,12.04
8.164708137512207,9.26,2.59,1.53,9.73
8.172221183776855,-3.77,9.79,4.66,11.47
8.188075065612793,-9.0,6.3,1.11,11.04
8.19194507598877,-7.43,-0.81,-1.39,7.6
8.20239806175232,-3.82,-2.37,-0.66,4.54
8.212675094604492,-2.94,-1.31,2.1,3.84
8.223865985870361,-3.98,-0.78,3.38,5.27
8.232280254364014,-2.84,0.13,1.66,3.29
8.242176055908203,-1.58,0.9,-0.28,1.83
8.252490997314453,-2.01,0.32,-0.3,2.05
8.262808084487915,-2.93,-0.74,-0.11,3.02
8.27811312675476,-3.08,-0.17,-0.43,3.11
8.28228211402893,-1.85,0.27,-0.22,1.88
8.292160987854004,-0.15,0.2,0.7,0.74
8.302492141723633,0.83,0.04,1.47,1.68
8.312243938446045,1.06,0.15,1.1,1.53
8.324810028076172,1.04,0.15,0.38,1.11
8.332344055175781,0.06,0.31,-0.53,0.61
8.3421630859375,-1.46,0.21,-0.94,1.74
8.35263204574585,-1.77,-0.18,-0.93,2.0
8.362988948822021,-1.75,-0.14,-0.98,2.01
8.37445592880249,-1.26,-0.05,0.25,1.28
8.382416248321533,-0.16,-0.03,1.07,1.08
8.392360210418701,0.22,0.43,1.11,1.21
8.402704238891602,0.33,0.15,0.81,0.88
8.41307806968689,-0.24,0.01,0.23,0.33
8.426299095153809,-0.56,-0.03,-0.16,0.58
8.432496070861816,-0.51,-0.05,-0.17,0.53
8.442537069320679,-0.26,-0.08,-0.04,0.27
8.453300952911377,0.36,-0.12,-0.11,0.39
8.46315622329712,0.15,-0.16,0.15,0.26
8.475755214691162,-0.36,-0.19,0.32,0.51
8.482526063919067,-0.26,0.01,0.18,0.31
8.492592096328735,0.23,0.1,-0.07,0.26
8.502856254577637,0.66,0.03,0.0,0.66
8.515193939208984,0.67,0.01,0.01,0.67
8.523137092590332,0.51,0.02,-0.2,0.54
8.539299964904785,0.52,0.07,-0.3,0.6
8.542765140533447,0.57,0.04,-0.43,0.71
8.552817106246948,0.53,0.1,-0.35,0.64
8.563058137893677,0.24,0.16,0.09,0.3
8.575851917266846,0.44,0.05,0.07,0.44
8.58285903930664,0.51,0.04,0.05,0.51
8.593202114105225,0.4,0.15,0.1,0.43
8.603081226348877,0.58,0.13,-0.14,0.61
8.615908145904541,0.87,0.2,-0.26,0.92
8.623130083084106,0.9,0.22,-0.35,0.99
8.641351222991943,0.79,0.28,-0.5,0.97
8.642605066299438,0.52,0.38,-0.43,0.77
8.652758121490479,0.3,0.35,-0.43,0.63
8.66279411315918,-0.03,0.42,-0.88,0.97
8.674957036972046,-0.2,0.45,-0.61,0.78
8.682579040527344,0.09,0.44,-0.33,0.55
8.692477226257324,0.45,0.76,0.52,1.02
8.702510118484497,0.54,0.26,0.54,0.8
8.712419033050537,0.8,0.29,0.38,0.93
8.72248125076294,0.97,0.77,-0.19,1.25
8.732592105865479,0.99,0.92,-0.49,1.43
8.743828058242798,0.94,0.82,-0.75,1.45
8.753552913665771,0.78,0.62,-0.93,1.36
8.763971090316772,0.65,0.71,-0.95,1.35
8.77845811843872,0.76,1.04,-0.7,1.46
8.782979965209961,1.17,1.39,-0.75,1.96
8.792968034744263,1.44,1.7,-0.75,2.35
8.803788185119629,1.43,1.85,-0.69,2.43
8.813632011413574,1.55,1.64,-0.58,2.32
8.827219009399414,1.86,1.72,-0.4,2.56
8.833092212677002,2.22,2.19,-0.36,3.13
8.84296202659607,2.76,2.75,-1.22,4.08
8.85381007194519,3.29,3.78,-1.84,5.33
8.86370325088501,3.95,4.67,-1.91,6.4
8.877492904663086,5.24,5.07,-2.6,7.74
8.883063077926636,5.36,5.23,-2.33,7.84
8.893342018127441,5.2,5.34,-0.7,7.48
8.903825044631958,6.24,4.83,-1.17,7.97
8.913710117340088,7.1,4.51,-1.29,8.5
8.927063941955566,6.6,4.11,-1.19,7.86
8.93310809135437,4.9,2.18,-1.72,5.63
8.943252086639404,0.04,3.52,-4.26,5.52
8.953451156616211,-1.66,5.83,-4.24,7.39
8.963864088058472,0.28,4.82,-4.78,6.79
8.977494239807129,5.55,1.88,-7.47,9.49
8.983455181121826,7.93,-1.24,-7.76,11.16
8.993349075317383,6.34,-1.22,-6.27,8.99
9.00389814376831,6.69,-1.33,-5.03,8.47
9.013699054718018,7.46,-3.44,-4.92,9.57
9.026941061019897,9.52,-3.5,-5.14,11.37
9.033368110656738,10.24,-4.0,-4.03,11.7
9.043262004852295,8.77,-4.14,-3.74,10.39
9.05350923538208,7.98,-4.04,-3.53,9.61
9.064081192016602,8.0,-3.91,-2.72,9.31
9.077916145324707,8.24,-3.73,-2.16,9.29
9.083393096923828,8.13,-3.46,-1.64,8.98
9.093723058700562,7.8,-3.28,-1.37,8.57
9.103797912597656,7.35,-2.81,-1.22,7.96
9.114268064498901,6.73,-2.25,-1.25,7.2
9.129470109939575,5.96,-1.8,-1.64,6.43
9.13333511352539,5.3,-1.59,-1.99,5.88
9.143049240112305,4.16,-1.73,-2.42,5.11
9.153581142425537,3.44,-1.18,-2.95,4.68
9.163182020187378,2.74,-0.34,-2.95,4.04
9.175405979156494,1.88,0.14,-3.25,3.75
9.183506965637207,1.12,0.37,-3.2,3.41
9.193466186523438,0.61,0.64,-2.94,3.07
9.203675031661987,0.56,0.98,-2.73,2.95
9.214051246643066,0.39,1.2,-2.42,2.72
9.226668119430542,-0.02,1.21,-1.92,2.26
9.233552932739258,-0.36,1.39,-1.52,2.09
9.243550062179565,-0.42,1.5,-1.04,1.87
9.253703117370605,-0.45,1.74,-0.51,1.86
9.263917922973633,-0.61,1.77,-0.06,1.87
9.279150009155273,-0.72,1.85,0.46,2.03
9.283698081970215,-1.0,2.14,0.75,2.47
9.293539047241211,-1.45,2.2,0.88,2.77
9.303802013397217,-1.87,2.27,0.88,3.06
9.314227104187012,-2.17,2.56,0.89,3.47
9.329479217529297,-2.45,2.97,0.88,3.94
9.333606243133545,-2.74,3.39,1.01,4.47
9.343415021896362,-2.99,3.63,1.29,4.87
9.353881120681763,-3.46,3.72,1.52,5.3
9.363635063171387,-3.9,3.92,1.75,5.79
9.375009059906006,-4.15,4.4,2.1,6.4
9.383722066879272,-4.34,4.86,2.19,6.87
9.394024133682251,-4.76,5.02,2.26,7.27
9.403986930847168,-4.82,4.81,2.36,7.2
9.414278984069824,-4.84,4.61,2.39,7.09
9.42653512954712,-5.11,4.61,2.42,7.29
9.433897018432617,-5.51,4.58,2.48,7.58
9.443701028823853,-5.85,4.57,2.53,7.84
9.45401406288147,-6.08,4.42,2.64,7.96
9.46450424194336,-6.47,4.54,2.74,8.36
9.476936101913452,-7.39,4.72,2.65,9.16
9.483928203582764,-7.94,4.59,2.47,9.49
9.493809223175049,-8.06,4.32,2.45,9.46
9.504074096679688,-8.33,4.08,2.44,9.59
9.514469146728516,-8.45,3.98,2.28,9.61
9.526601076126099,-8.21,4.22,2.22,9.49
9.533982038497925,-7.87,4.33,2.32,9.27
9.544226169586182,-7.63,4.24,2.36,9.04
9.55416202545166,-7.52,4.12,2.5,8.93
9.563934087753296,-7.79,5.87,2.47,10.06
9.576780080795288,-4.02,12.07,3.41,13.17
9.583992004394531,-1.9,-0.03,4.7,5.06
9.594271183013916,-4.04,-1.35,1.81,4.62
9.604222059249878,-1.08,3.61,1.09,3.92
9.614599227905273,3.56,4.08,3.2,6.28
9.627336978912354,7.79,2.46,1.38,8.28
9.634077072143555,10.59,0.48,-1.77,10.74
9.644565105438232,9.04,1.56,0.99,9.22
9.654500007629395,-2.43,7.69,3.73,8.88
9.66450023651123,-9.27,6.87,0.04,11.53
9.677748203277588,-7.89,-1.72,-2.1,8.34
9.684289932250977,-3.48,-3.86,-0.16,5.19
9.694155216217041,-1.92,0.6,1.23,2.35
9.704313039779663,-2.85,0.74,0.18,2.95
9.714057922363281,-1.91,-0.4,-1.16,2.27
9.727001190185547,-0.8,-0.11,-1.32,1.54
9.734230995178223,-1.54,-0.67,-0.58,1.77
9.743811130523682,-2.18,-0.33,-0.16,2.21
9.754444122314453,-1.73,0.5,0.29,1.82
9.764657974243164,-1.14,0.18,0.62,1.31
9.77630615234375,0.07,0.34,0.57,0.66
9.784294128417969,0.48,0.5,0.58,0.9
9.794366121292114,-0.24,0.36,0.13,0.45
9.804500102996826,-0.31,0.05,-0.25,0.4
9.814816951751709,-0.58,-0.09,-0.72,0.92
9.827613115310669,-1.0,-0.04,-0.47,1.1
9.834294080734253,-0.96,0.22,0.2,1.0
9.844337940216064,-0.67,0.15,0.31,0.75
9.854491233825684,-0.58,0.05,0.35,0.67
9.864825248718262,-0.69,0.16,0.29,0.76
9.878005981445312,-0.65,0.15,0.03,0.66
9.884390115737915,-0.54,0.06,0.2,0.57
9.894351959228516,-0.56,0.1,0.43,0.71
9.904640197753906,-0.43,0.13,0.23,0.5
9.91480016708374,-0.09,-0.02,-0.08,0.12
9.927381038665771,0.05,-0.1,0.09,0.14
9.934401988983154,0.23,-0.04,0.06,0.24
9.94455099105835,0.35,0.0,-0.13,0.37
9.95474100112915,0.18,-0.05,0.28,0.33
9.96504807472229,0.4,-0.06,0.19,0.44
9.978200912475586,0.53,0.02,-0.39,0.65
9.984498023986816,0.01,-0.01,-0.29,0.29
9.994588136672974,-0.34,-0.15,-0.22,0.43
10.004735946655273,-0.05,-0.07,-0.14,0.16
10.015029907226562,0.54,-0.05,0.11,0.55
10.028310060501099,0.37,-0.09,0.27,0.46
10.034563064575195,0.07,-0.01,0.17,0.18
10.04451608657837,-0.04,0.06,0.02,0.07
10.054781913757324,-0.13,0.18,-0.16,0.27
10.065165042877197,-0.35,0.17,-0.02,0.38
10.077701091766357,-0.14,0.07,-0.21,0.26
10.08466100692749,0.03,0.05,-0.31,0.31
10.094696998596191,0.11,0.17,-0.21,0.29
10.105387210845947,0.25,0.23,-0.2,0.39
10.115355968475342,0.14,0.03,-0.36,0.38
10.13004207611084,0.02,-0.04,-0.32,0.32
10.134632110595703,0.34,-0.07,-0.37,0.5
10.144720077514648,0.66,-0.01,-0.45,0.79
10.154920101165771,0.88,-0.02,-0.52,1.02
10.165157079696655,1.24,0.52,-0.16,1.35
10.178397178649902,1.24,0.73,0.04,1.43
10.18482494354248,1.05,0.67,-0.21,1.26
10.194916248321533,0.64,0.87,-0.22,1.1
10.204971075057983,0.34,0.94,-0.16,1.01
10.215250968933105,0.21,0.7,-0.03,0.73
10.228023052215576,0.34,0.8,0.03,0.86
10.234926223754883,0.57,0.98,0.29,1.17
10.244960069656372,0.66,0.86,0.36,1.14
10.255034923553467,0.76,0.79,0.21,1.11
10.265283107757568,0.99,1.05,0.07,1.44
10.277277946472168,1.06,1.34,-0.11,1.71
10.284917116165161,1.27,1.11,-0.63,1.8
10.294806957244873,1.26,0.9,-0.88,1.78
10.305093050003052,1.24,0.92,-0.89,1.78
10.315459251403809,1.56,1.24,-0.7,2.11
10.331368923187256,1.95,1.73,-0.59,2.67
10.33493423461914,2.59,2.59,-1.02,3.8
10.344794034957886,3.24,3.48,-1.07,4.87
10.35514211654663,3.71,3.37,-0.96,5.1
10.364758014678955,4.33,3.49,-1.07,5.66
10.37646198272705,5.01,4.6,-1.44,6.95
10.38511323928833,5.75,5.5,-2.07,8.22
10.395102977752686,7.01,6.31,-2.5,9.75
10.405176162719727,8.67,6.83,-3.18,11.48
10.41553020477295,8.96,6.72,-3.28,11.67
10.427751064300537,7.83,4.21,-2.38,9.2
10.435066223144531,5.07,1.24,-3.22,6.13
10.445157051086426,1.21,3.78,-4.52,6.01
10.455313205718994,-0.66,5.77,-5.3,7.86
10.465549945831299,-1.91,3.35,-5.21,6.48
10.478514194488525,0.51,-0.65,-5.14,5.2
10.485153198242188,5.22,-1.95,-4.57,7.2
10.495189189910889,6.68,-3.06,-3.55,8.16
10.50531816482544,6.33,-5.15,-2.8,8.62
10.515533924102783,5.45,-5.36,-2.68,8.1
10.528429985046387,7.46,-4.9,-2.52,9.27
10.535295963287354,8.08,-5.98,-2.23,10.29
10.545255184173584,7.02,-5.95,-2.34,9.49
10.55542802810669,6.46,-5.21,-2.07,8.55
10.565879106521606,6.03,-4.62,-1.65,7.77
10.578119039535522,5.83,-4.45,-1.43,7.47
10.585626125335693,5.73,-4.15,-1.0,7.14
10.595649242401123,5.7,-3.85,-0.63,6.9
10.605664253234863,5.46,-3.43,-0.54,6.47
10.61626410484314,4.74,-2.6,-0.78,5.46
10.629961013793945,3.89,-1.86,-0.99,4.42
10.635385036468506,3.0,-1.33,-1.26,3.51
10.645437240600586,1.98,-0.99,-1.62,2.74
10.655604124069214,1.28,-0.56,-2.02,2.45
10.66600513458252,0.81,0.07,-2.29,2.43
10.67931318283081,0.4,0.7,-2.18,2.32
10.685315132141113,0.22,1.05,-2.0,2.26
10.695725917816162,0.33,1.21,-1.88,2.25
10.705742120742798,0.18,1.18,-1.57,1.97
10.716431140899658,-0.03,0.81,-1.17,1.42
10.73034405708313,0.02,0.43,-0.83,0.93
10.73542594909668,0.38,0.58,-0.54,0.87
10.745480060577393,0.72,0.77,-0.17,1.06
10.755753993988037,0.89,0.65,0.17,1.11
10.765965938568115,0.92,0.47,0.51,1.15
10.778450965881348,1.0,0.59,0.87,1.45
10.785590171813965,1.19,0.98,1.19,1.94
10.79572606086731,1.21,1.12,1.46,2.2
10.80573320388794,0.97,1.3,1.6,2.27
10.816057205200195,0.74,1.54,1.79,2.47
10.828411102294922,0.7,1.61,1.92,2.6
10.835562229156494,0.78,1.75,2.04,2.79
10.845688104629517,0.8,2.03,2.1,3.02
10.855917930603027,0.0,5.83,2.27,6.25
10.865692138671875,0.81,6.11,1.59,6.36
10.877762079238892,-0.05,1.39,3.23,3.51
10.885865211486816,-2.37,3.2,3.28,5.15
10.896075248718262,-2.52,2.5,2.93,4.6
10.905955076217651,-2.62,3.2,2.13,4.65
10.916260242462158,-2.82,3.47,1.57,4.73
10.931100130081177,-3.19,3.19,2.08,4.96
10.935730934143066,-3.91,2.97,2.67,5.58
10.945755004882812,-4.15,2.93,2.56,5.68
10.955990076065063,-3.38,3.54,2.15,5.34
10.966289043426514,-2.65,3.82,2.04,5.07
10.979105949401855,-3.07,3.71,1.76,5.12
10.985796928405762,-4.07,3.69,1.5,5.69
10.99588918685913,-4.82,3.61,1.9,6.31
11.006066083908081,-5.5,3.25,2.15,6.74
11.016651153564453,-6.22,3.3,1.98,7.31
11.029084205627441,-6.89,3.76,2.0,8.09
11.035762071609497,-7.35,3.89,2.2,8.6
11.045788049697876,-7.24,3.51,2.27,8.36
11.056055068969727,-6.91,3.53,2.29,8.09
11.066318988800049,-6.73,4.95,2.46,8.7
11.078719139099121,-6.01,5.49,2.93,8.65
11.08592700958252,-6.83,4.26,3.51,8.78
11.095921039581299,-7.22,4.69,3.19,9.18
11.106180191040039,-6.39,4.2,2.32,7.99
11.11638593673706,-5.87,4.88,1.79,7.84
11.128958225250244,-6.57,2.99,0.95,7.28
11.135893106460571,-5.15,-1.71,-1.45,5.61
11.146028995513916,2.86,-1.08,-5.45,6.24
11.156216144561768,12.33,2.5,-4.37,13.31
11.166492938995361,9.13,6.21,2.13,11.24
11.179350137710571,-1.11,5.21,2.54,5.9
11.186017036437988,-4.87,0.62,0.71,4.96
11.196075916290283,-4.15,-2.67,0.9,5.01
11.206246137619019,-4.86,0.47,1.41,5.08
11.216692924499512,-5.9,1.02,1.19,6.1
11.231086254119873,-4.31,-0.22,0.37,4.33
11.235948085784912,-2.39,0.32,0.82,2.54
11.24618411064148,-1.56,0.67,1.21,2.08
11.25639009475708,-1.29,-0.05,0.54,1.39
11.266507148742676,-1.27,-0.52,-0.01,1.37
11.27969217300415,-1.66,-0.15,0.38,1.7
11.28614091873169,-1.18,0.54,0.91,1.58
11.296377182006836,-0.37,0.31,0.69,0.84
11.306397914886475,-0.22,-0.01,0.38,0.43
11.316472053527832,-0.13,0.29,0.38,0.49
11.332733154296875,-0.1,0.15,0.05,0.18
11.336250066757202,-0.67,0.0,-0.29,0.73
11.34623408317566,-0.97,0.15,-0.43,1.07
11.35653018951416,-0.49,0.0,-0.79,0.92
11.366266250610352,-0.46,-0.03,-0.5,0.68
11.37959098815918,-0.7,0.11,0.03,0.7
11.38624906539917,-0.24,0.17,0.2,0.35
11.396098136901855,0.36,0.12,0.42,0.56
11.406618118286133,0.55,0.15,0.38,0.68
11.41605806350708,0.55,0.15,0.13,0.58
11.427862167358398,0.66,0.07,-0.51,0.83
11.436249256134033,0.29,0.0,-0.69,0.74
11.446388244628906,0.23,-0.01,-0.53,0.57
11.456677913665771,0.92,-0.08,-0.52,1.05
11.466822147369385,1.42,-0.2,-0.38,1.48
11.47925615310669,1.13,-0.08,-0.02,1.13
11.486339092254639,1.08,0.2,0.09,1.1
11.496485233306885,0.98,0.14,-0.3,1.03
11.50669002532959,0.17,0.04,-0.4,0.43
11.51687502861023,-0.17,0.08,-0.3,0.35
11.529938220977783,0.03,0.09,-0.23,0.24
11.536596059799194,0.15,-0.03,0.18,0.23
11.54660701751709,0.02,-0.04,0.43,0.43
11.556539058685303,-0.04,0.03,0.43,0.43
11.566970109939575,-0.26,0.06,0.4,0.48
11.580246925354004,-0.19,-0.03,0.28,0.33
11.586424112319946,0.07,-0.03,0.14,0.15
11.596894025802612,0.01,-0.04,0.12,0.12
11.60701322555542,-0.11,-0.11,0.29,0.32
11.61743712425232,-0.21,-0.03,0.16,0.26
11.630121231079102,-0.09,-0.03,0.16,0.18
11.636653900146484,-0.05,0.03,0.18,0.18
11.646626949310303,0.04,0.03,0.1,0.11
11.656895160675049,0.06,0.02,0.16,0.17
11.667022228240967,0.19,0.05,0.15,0.24
11.679563045501709,0.44,0.06,-0.09,0.45
11.686460018157959,0.2,0.01,-0.3,0.36
11.696743965148926,-0.18,0.08,-0.21,0.28
11.706937074661255,0.14,0.12,-0.35,0.39
11.717365026473999,0.46,0.04,-0.34,0.57
11.730669975280762,0.13,0.32,-0.18,0.38
11.73692011833191,0.17,0.51,-0.14,0.55
11.746985912322998,0.19,0.51,-0.25,0.59
11.757232189178467,0.01,0.42,-0.5,0.65
11.767437934875488,0.19,0.52,-0.58,0.8
11.780367136001587,0.32,0.35,-0.42,0.63
11.786622047424316,0.39,0.37,-0.07,0.54
11.797025203704834,0.77,0.8,0.0,1.11
11.80715799331665,1.14,1.08,-0.21,1.58
11.817276954650879,1.24,1.09,-0.45,1.71
11.830303192138672,1.32,1.05,-0.65,1.8
11.836820125579834,1.6,1.39,-1.1,2.38
11.846910953521729,1.91,2.25,-1.23,3.19
11.857136249542236,2.23,2.76,-0.7,3.61
11.867342948913574,2.42,2.69,-0.35,3.63
11.878911018371582,2.51,2.54,-0.15,3.57
11.886826038360596,2.89,2.4,0.28,3.76
11.897278070449829,3.31,2.66,0.29,4.25
11.907276153564453,3.91,2.77,0.01,4.79
11.917386054992676,4.49,2.0,-1.09,5.03
11.931509017944336,4.71,2.71,-1.34,5.59
11.936867237091064,5.39,3.85,-2.05,6.93
11.947039127349854,5.44,4.56,-2.82,7.63
11.95731496810913,5.28,4.49,-3.38,7.71
11.967466115951538,5.4,3.66,-3.22,7.27
11.980271100997925,7.22,5.27,-3.08,9.45
11.987031936645508,8.77,7.68,-2.07,11.83
11.997152090072632,10.82,6.19,-1.19,12.52
12.007291078567505,9.16,0.8,-2.2,9.45
12.0174400806427,4.04,2.51,-1.2,4.9
12.029935121536255,1.5,6.23,-1.65,6.61
12.036928176879883,1.73,7.67,-5.07,9.35
12.047317028045654,2.35,7.7,-8.87,11.97
12.057362079620361,1.55,7.96,-9.95,12.83
12.06777310371399,2.48,6.13,-7.53,10.02
12.081820011138916,10.19,-0.04,-6.04,11.84
12.087063074111938,12.51,-2.55,-4.92,13.68
12.0972900390625,10.93,-3.31,-5.13,12.51
12.107445240020752,11.06,-3.52,-4.13,12.31
12.11761212348938,11.4,-6.25,-3.26,13.4
12.130612134933472,9.56,-6.38,-3.13,11.91
12.137078046798706,8.67,-5.13,-2.55,10.39
12.147243976593018,8.53,-4.39,-2.4,9.88
12.157530069351196,8.29,-3.76,-2.18,9.36
12.167532920837402,7.99,-3.19,-2.13,8.86
12.18108606338501,8.26,-4.25,-2.09,9.52
12.187310218811035,8.19,-4.72,-2.16,9.69
12.197312116622925,7.26,-4.28,-2.03,8.66
12.207587242126465,5.93,-3.59,-1.96,7.2
12.217838048934937,4.9,-3.03,-2.0,6.09
12.23082709312439,4.41,-2.43,-2.16,5.47
12.237273216247559,3.86,-1.92,-2.28,4.87
12.24751615524292,3.46,-1.4,-2.11,4.28
12.257651090621948,3.15,-0.61,-2.25,3.91
12.267824172973633,2.62,0.11,-2.35,3.52
12.280564069747925,1.87,0.62,-2.46,3.15
12.287430047988892,1.24,1.1,-2.49,2.99
12.29743504524231,0.85,1.41,-2.18,2.73
12.307668209075928,0.65,1.55,-2.01,2.62
12.31808090209961,0.47,1.91,-1.69,2.59
12.334350109100342,0.37,2.23,-1.21,2.56
12.337378025054932,0.26,2.53,-0.94,2.71
12.347386121749878,-0.11,2.83,-0.67,2.91
12.35791802406311,-0.58,2.96,-0.38,3.04
12.368009090423584,-0.71,3.15,-0.19,3.23
12.382191181182861,-1.06,3.51,-0.01,3.66
12.387511253356934,-1.46,4.0,0.19,4.26
12.397425174713135,-1.76,4.76,0.68,5.12
12.40795612335205,-2.45,5.88,1.12,6.46
12.417558193206787,-3.66,6.78,1.6,7.86
12.429088115692139,-4.51,7.3,2.18,8.85
12.437557220458984,-4.6,9.19,2.82,10.65
12.447924137115479,-4.52,8.43,3.27,10.1
12.457967042922974,-6.4,9.22,3.45,11.74
12.468136072158813,-8.21,10.21,3.12,13.46
12.480613231658936,-9.7,9.05,2.8,13.55
12.487662076950073,-11.11,8.55,2.45,14.23
12.497865200042725,-12.49,7.93,2.73,15.04
12.508008003234863,-13.47,7.31,2.83,15.58
12.518264055252075,-14.04,7.34,2.78,16.08
12.530224084854126,-14.27,7.63,3.03,16.46
12.537642002105713,-14.04,8.08,3.22,16.51
12.547872066497803,-10.96,15.59,3.28,19.33
12.558102130889893,-7.08,10.69,4.88,13.71
12.568433046340942,-9.99,9.46,3.09,14.1
12.581416130065918,-9.77,7.76,1.34,12.54
12.587783098220825,-7.13,-0.13,-0.47,7.14
12.598217964172363,0.61,0.41,-5.63,5.67
12.608139038085938,16.13,4.7,-7.66,18.46
12.62272310256958,25.84,9.27,5.97,28.09
12.627893924713135,-3.87,12.07,11.26,16.95
12.64681625366211,-16.35,4.51,4.55,17.56
12.647651195526123,-9.91,-5.9,-0.52,11.54
12.658013105392456,-3.71,-4.7,-0.36,5.99
12.668214082717896,-5.85,0.2,-1.45,6.03
12.680385112762451,-7.31,1.61,-1.99,7.74
12.687747955322266,-3.58,1.36,0.66,3.88
12.698219060897827,-1.59,0.19,0.58,1.7
12.70805025100708,-1.73,-0.53,-2.94,3.45
12.71840524673462,-1.84,-0.92,-2.0,2.86
12.731669902801514,-2.34,-0.01,2.61,3.5
12.737746238708496,-0.14,1.07,3.51,3.67
12.748208999633789,1.57,0.61,1.94,2.56
12.758024215698242,0.93,0.21,0.49,1.07
12.768336057662964,-0.78,-0.04,-0.06,0.78
12.781951904296875,-1.92,-0.03,-0.01,1.92
12.787943124771118,-2.51,0.14,-1.1,2.74
12.79820203781128,-2.12,0.17,-1.18,2.43
12.808266162872314,-1.44,0.12,-0.19,1.45
12.817942142486572,-0.31,0.28,0.62,0.74
12.83115005493164,0.45,0.33,1.37,1.47
12.837937116622925,-0.07,0.25,0.96,0.99
12.848069190979004,-0.92,0.22,0.23,0.97
12.858418941497803,-1.0,0.12,-0.22,1.03
12.868160247802734,-0.53,0.1,-0.33,0.63
12.88072395324707,-0.13,0.11,0.06,0.18
12.888087034225464,0.0,0.01,0.37,0.37
12.898400068283081,-0.23,-0.14,0.17,0.31
12.90873408317566,-0.27,-0.19,-0.21,0.39
12.91861605644226,-0.09,-0.2,-0.32,0.38
12.93131709098816,0.2,-0.04,-0.75,0.77
12.93815302848816,0.71,0.35,-0.59,0.98
12.948347091674805,1.16,0.25,0.03,1.18
12.958595037460327,1.13,-0.07,-0.04,1.13
12.968801021575928,1.07,-0.08,-0.02,1.07
12.982594966888428,1.33,0.03,-0.2,1.34
12.988248109817505,1.28,0.18,-0.46,1.37
12.998679161071777,0.82,0.47,-0.42,1.03
13.0086669921875,0.23,0.52,-0.36,0.67
13.01883602142334,0.03,0.41,0.01,0.41
13.031737089157104,0.28,0.34,0.18,0.47
13.03819990158081,0.6,0.38,-0.14,0.72
13.04848313331604,1.0,0.4,-0.15,1.08
13.058708190917969,1.34,0.43,0.01,1.4
13.068692207336426,1.34,0.39,-0.17,1.4
13.081023216247559,1.3,0.52,-0.42,1.46
13.088288068771362,1.41,0.83,-0.45,1.69
13.098650932312012,1.84,1.15,-0.41,2.2
13.10882306098938,2.35,1.37,-0.21,2.72
13.118945121765137,2.66,1.31,0.12,2.96
13.132024049758911,2.96,1.23,0.3,3.21
13.138459205627441,3.2,1.43,0.08,3.5
13.148617029190063,3.23,1.66,-0.49,3.66
13.15873098373413,2.97,1.72,-1.1,3.6
13.168986082077026,2.77,1.86,-1.87,3.82
13.181915044784546,2.87,2.28,-2.62,4.5
13.188416957855225,3.71,3.41,-2.85,5.78
13.198735237121582,5.52,5.01,-3.61,8.28
13.208876132965088,6.21,5.0,-3.79,8.82
13.21908712387085,5.98,4.32,-3.58,8.19
13.231864929199219,6.43,5.0,-3.52,8.87
13.238569021224976,7.3,5.76,-3.39,9.89
13.24898624420166,9.73,6.86,-3.78,12.49
13.258939027786255,13.08,8.66,-3.27,16.02
13.269143104553223,10.16,9.3,-0.15,13.77
13.282287120819092,5.12,7.96,-0.35,9.47
13.288651943206787,4.05,9.32,-7.11,12.4
13.298858165740967,3.17,7.98,-9.69,12.94
13.308980941772461,3.19,4.97,-9.57,11.24
13.319184064865112,5.76,1.97,-8.94,10.81
13.333243131637573,11.24,-0.89,-7.9,13.76
13.33872103691101,10.4,-2.11,-5.37,11.89
13.3490309715271,7.27,-4.17,-5.15,9.83
13.359040021896362,8.73,-5.67,-5.74,11.88
13.369115114212036,10.45,-6.47,-4.62,13.13
13.384517192840576,10.2,-7.6,-3.08,13.08
13.388689041137695,9.24,-8.03,-2.65,12.52
13.39931607246399,8.18,-7.73,-2.59,11.54
13.409368991851807,7.46,-6.4,-2.43,10.12
13.419169902801514,7.22,-4.67,-2.18,8.87
13.43213415145874,6.92,-4.02,-2.1,8.27
13.438859939575195,6.61,-3.98,-1.99,7.96
13.44925308227539,6.42,-3.95,-1.83,7.75
13.45925521850586,5.89,-3.64,-1.78,7.14
13.469939231872559,4.75,-2.85,-2.03,5.89
13.483561038970947,3.51,-2.08,-2.13,4.6
13.48899221420288,2.53,-1.54,-2.42,3.82
13.499239921569824,1.61,-1.09,-2.64,3.27
13.509452104568481,1.11,-0.59,-2.6,2.88
13.519574165344238,1.0,0.01,-2.5,2.69
13.534128189086914,0.84,0.56,-2.38,2.58
13.538919925689697,0.53,0.74,-2.06,2.25
13.549168109893799,0.2,0.68,-1.61,1.75
13.559315204620361,0.07,0.78,-1.35,1.56
13.569490909576416,0.18,0.82,-1.02,1.32
13.581995964050293,0.37,1.07,-0.34,1.18
13.588969230651855,0.18,1.37,0.3,1.41
13.599294185638428,-0.14,2.06,0.85,2.23
13.609331130981445,-0.28,2.34,1.18,2.63
13.619656085968018,-0.6,2.44,1.24,2.8
13.632544994354248,-0.88,2.9,1.41,3.34
13.638994216918945,-0.88,3.57,1.64,4.02
13.6494140625,-1.05,4.58,1.71,5.0
13.65945816040039,-1.48,5.74,2.02,6.26
13.669601917266846,-2.06,6.83,2.45,7.54
13.68205213546753,-2.6,7.74,2.97,8.68
13.68911600112915,-3.11,8.79,3.79,10.06
13.699705123901367,-3.62,10.16,4.66,11.74
13.709699153900146,-4.55,11.01,4.94,12.89
13.72028923034668,-6.02,11.11,4.5,13.41
13.734276056289673,-8.06,10.3,4.01,13.67
13.739443063735962,-10.43,9.1,3.77,14.34
13.749480247497559,-12.48,8.11,4.0,15.41
13.759620189666748,-13.28,7.69,4.21,15.91
13.76931095123291,-13.21,7.98,4.3,16.02
13.781851053237915,-13.31,8.69,4.19,16.43
13.789336204528809,-13.23,8.57,3.93,16.24
13.799503087997437,-12.67,7.64,3.09,15.11
13.80983591079712,-12.43,8.48,2.73,15.29
13.819840908050537,-7.91,15.89,3.35,18.06
13.833334922790527,-6.29,6.59,4.04,9.96
13.83948802947998,-7.28,0.79,2.32,7.68
13.849555969238281,-4.31,-1.15,1.03,4.57
13.859715938568115,3.53,-0.51,-2.36,4.27
13.870138168334961,13.84,1.53,-8.91,16.53
13.88405990600586,24.85,5.99,-1.87,25.63
13.889586925506592,3.48,12.67,10.97,17.11
13.8998122215271,-13.13,6.98,5.41,15.82
13.909770011901855,-11.76,-4.6,-0.58,12.64
13.920177936553955,-6.22,-4.25,0.07,7.53
13.93376111984253,-7.27,1.94,-2.52,7.93
13.939505100250244,-7.18,1.65,-0.93,7.42
13.949662208557129,-2.65,-0.59,0.41,2.74
13.9598970413208,-1.89,-0.04,-1.05,2.16
13.97012710571289,-1.92,0.35,-1.87,2.7
13.984207153320312,-1.18,-0.13,-0.22,1.2
13.989509105682373,-1.18,0.0,1.91,2.24
13.999722957611084,-0.03,0.57,2.59,2.65
14.0104341506958,1.22,0.17,1.0,1.58
14.020103931427002,-0.21,0.23,-0.21,0.37
14.03493595123291,-1.62,0.28,0.39,1.68
14.039715051651001,-1.8,0.49,0.29,1.88
14.049797058105469,-2.04,0.4,-0.66,2.18
14.05997896194458,-1.75,-0.01,-0.62,1.85
14.070494174957275,-0.93,-0.04,-0.05,0.93
14.08358097076416,-0.12,0.13,0.35,0.39
14.08981204032898,0.4,0.03,0.74,0.84
14.099860191345215,0.01,0.01,0.85,0.85
14.11003303527832,-0.35,0.16,0.48,0.61
14.120466232299805,-0.11,0.11,-0.07,0.17
14.133523941040039,0.16,-0.05,-0.17,0.23
14.139955997467041,0.41,-0.03,-0.06,0.41
14.150007247924805,0.55,-0.02,-0.07,0.55
14.16005802154541,0.7,-0.09,-0.41,0.81
14.170238971710205,0.49,-0.11,-0.21,0.54
14.183576107025146,0.29,-0.15,-0.2,0.38
14.189969062805176,0.37,-0.03,-0.32,0.49
14.200087070465088,0.45,-0.05,-0.33,0.56
14.210127115249634,0.69,-0.1,0.13,0.7
14.220223903656006,1.02,-0.1,0.25,1.05
14.234658241271973,0.87,0.13,0.19,0.89
14.240293979644775,0.06,0.31,0.18,0.36
14.25002408027649,-0.31,0.16,0.14,0.37
14.260024070739746,-0.3,0.16,0.14,0.36
14.270408153533936,-0.16,0.44,0.53,0.7
14.283772945404053,0.01,0.28,0.23,0.36
14.290172100067139,0.3,0.34,0.07,0.45
14.300293922424316,0.63,0.39,0.0,0.74
14.310351133346558,0.69,0.44,-0.15,0.83
14.320576190948486,0.71,0.41,-0.41,0.91
14.33333706855774,0.72,0.46,-0.6,1.04
14.340460062026978,0.88,0.69,-0.66,1.29
14.349921226501465,1.06,0.63,-0.71,1.42
14.360456943511963,1.42,0.95,-0.79,1.88
14.37012004852295,2.03,1.4,-0.2,2.47
14.385691165924072,2.37,1.28,0.14,2.69
14.390414237976074,2.53,1.2,0.06,2.8
14.400061130523682,2.79,1.28,-0.17,3.07
14.410449028015137,2.66,1.29,-0.5,2.99
14.420173168182373,2.31,1.51,-0.97,2.92
14.43378210067749,2.21,1.7,-1.45,3.14
14.440531253814697,2.47,1.94,-1.47,3.46
14.450178146362305,3.13,2.2,-1.32,4.04
14.46024203300476,3.96,2.83,-2.06,5.28
14.470271110534668,5.21,4.23,-3.19,7.43
14.482428073883057,6.04,5.11,-3.43,8.62
14.490612983703613,6.38,4.87,-3.61,8.8
14.500147104263306,6.76,4.66,-3.54,8.94
14.510544061660767,7.33,5.44,-3.05,9.62
14.520283222198486,9.06,7.01,-3.62,12.01
14.532930135726929,11.92,10.34,-3.72,16.21
14.541100978851318,10.96,9.45,-1.37,14.53
14.550468921661377,6.61,6.08,1.29,9.07
14.560647964477539,3.97,7.06,-2.86,8.58
14.5708589553833,3.14,7.52,-7.55,11.1
14.584434986114502,2.22,4.3,-8.65,9.91
14.590742111206055,1.42,1.18,-8.16,8.36
14.600604057312012,4.21,-1.76,-7.26,8.57
14.61063003540039,8.0,-3.24,-5.66,10.32
14.62084412574768,7.75,-3.97,-4.67,9.88
14.635159969329834,8.72,-4.67,-5.46,11.29
14.640602111816406,10.31,-5.51,-4.97,12.7
14.650636196136475,9.9,-6.22,-4.09,12.38
14.660820960998535,8.96,-6.67,-3.3,11.64
14.671057224273682,8.45,-7.11,-2.84,11.4
14.685925006866455,8.22,-7.04,-2.26,11.05
14.690831184387207,7.42,-6.34,-1.9,9.94
14.700632095336914,7.13,-5.03,-1.55,8.86
14.710678100585938,7.61,-4.51,-1.36,8.94
14.720677137374878,7.78,-4.57,-1.34,9.12
14.732035160064697,7.3,-4.41,-1.41,8.64
14.740639209747314,6.05,-3.74,-1.52,7.27
14.750684022903442,4.52,-3.07,-1.8,5.75
14.760869979858398,3.37,-2.49,-2.46,4.85
14.770463943481445,2.65,-1.98,-2.87,4.37
14.781435012817383,2.05,-1.43,-3.38,4.2
14.790998935699463,1.44,-0.59,-3.66,3.97
14.800579071044922,0.93,0.35,-3.7,3.83
14.810726165771484,0.57,1.07,-3.55,3.75
14.82070016860962,0.23,1.25,-3.05,3.3
14.83326506614685,0.07,0.87,-2.5,2.64
14.841256141662598,-0.04,0.92,-1.98,2.18
14.850858211517334,0.1,1.0,-1.48,1.78
14.8611421585083,0.43,1.13,-0.87,1.48
14.871145248413086,0.52,1.36,-0.28,1.48
14.884261131286621,0.44,1.55,0.01,1.61
14.891063213348389,0.37,2.01,0.17,2.05
14.90078592300415,0.06,2.76,0.52,2.8
14.911231994628906,-0.02,4.03,0.94,4.13
14.920900106430054,-0.78,8.2,1.03,8.3
14.93453311920166,0.14,7.62,0.08,7.62
14.941140174865723,0.41,8.99,4.31,9.97
14.950772047042847,-2.97,8.32,8.27,12.1
14.961153030395508,-5.74,4.86,4.49,8.75
14.970951080322266,-5.92,6.25,2.7,9.02
14.983518123626709,-5.81,8.61,4.77,11.42
14.991199970245361,-6.01,8.55,6.28,12.19
15.001040935516357,-6.63,8.03,5.54,11.79
15.011157989501953,-7.55,8.47,3.71,11.93
15.021429061889648,-8.64,9.06,2.97,12.86
15.035088062286377,-10.33,9.22,2.92,14.15
15.041347980499268,-12.03,7.41,2.69,14.38
15.051115989685059,-12.9,7.6,2.59,15.19
15.061257123947144,-12.33,9.44,2.49,15.72
15.071492195129395,-11.58,10.19,2.59,15.64
15.084589958190918,-9.92,10.83,2.58,14.91
15.091270923614502,-8.62,10.94,2.36,14.12
15.101191997528076,-7.89,10.54,2.46,13.39
15.111504077911377,-7.49,5.82,1.01,9.53
15.121577024459839,0.56,1.5,-2.88,3.29
15.135504245758057,14.93,3.29,-0.31,15.29
15.141541004180908,3.71,5.37,7.52,9.95
15.151257991790771,-11.12,2.31,6.27,12.97
15.161335945129395,-6.78,-0.12,1.83,7.02
15.171592235565186,-1.48,1.67,-0.98,2.43
15.185949087142944,-3.72,2.12,-3.27,5.38
15.191623210906982,-4.85,-0.73,-2.69,5.59
15.201487064361572,-3.44,-1.26,-1.44,3.93
15.211574077606201,-2.16,-0.19,-2.06,2.99
15.221767902374268,-2.26,0.06,-2.35,3.26
15.235960006713867,-2.78,-0.85,0.19,2.91
15.241597175598145,-1.73,-0.24,2.72,3.23
15.251200199127197,0.12,1.25,3.5,3.71
15.261478900909424,1.4,0.91,2.06,2.65
15.271363019943237,0.62,0.18,1.33,1.47
15.283655166625977,-0.89,0.07,-0.18,0.91
15.291779041290283,-2.3,0.14,-1.87,2.96
15.30124306678772,-2.71,-0.21,-1.92,3.32
15.311610221862793,-1.45,-0.23,-0.81,1.67
15.321359157562256,0.34,0.14,0.08,0.37
15.33386516571045,0.69,0.4,0.97,1.25
15.341758251190186,0.25,0.52,1.21,1.34
15.351508140563965,-0.42,0.28,0.87,1.0
15.361663103103638,-0.88,0.1,0.35,0.95
15.371891021728516,-0.82,0.22,0.16,0.86
15.387627124786377,-0.37,0.2,0.07,0.42
15.391762256622314,-0.07,0.1,-0.15,0.19
15.401456117630005,-0.06,-0.06,0.1,0.13
15.411683082580566,0.03,-0.2,0.28,0.34
15.422137022018433,0.06,-0.15,0.05,0.16
15.437373161315918,0.03,-0.03,-0.01,0.04
15.442256927490234,-0.1,0.04,-0.33,0.34
15.451530933380127,-0.32,0.06,-0.56,0.64
15.461902141571045,-0.12,0.18,-0.28,0.35
15.471598148345947,0.27,0.2,0.25,0.41
15.48396110534668,0.48,0.16,0.31,0.59
15.491996049880981,0.23,0.25,0.25,0.42
15.50150203704834,0.06,0.08,0.29,0.3
15.511926174163818,-0.02,0.04,-0.08,0.09
15.521721124649048,0.13,0.3,-0.03,0.32
15.534831047058105,0.21,0.22,-0.04,0.3
15.541922092437744,0.21,0.11,-0.16,0.28
15.55176305770874,0.18,0.15,-0.48,0.53
15.56188702583313,0.03,0.16,-0.38,0.41
15.57210922241211,0.34,0.25,-0.4,0.58
15.586747169494629,0.7,0.36,-0.6,0.98
15.592108249664307,1.21,0.73,-0.62,1.54
15.60186505317688,1.81,0.87,-0.41,2.04
15.611958980560303,2.1,0.99,-0.48,2.37
15.622221946716309,2.35,1.32,-0.71,2.78
15.635996103286743,2.73,1.54,-0.75,3.22
15.642152070999146,2.86,1.57,-0.52,3.3
15.651936054229736,3.02,1.45,-0.37,3.37
15.66204023361206,3.2,1.33,-0.33,3.48
15.672405242919922,3.42,1.6,-0.55,3.81
15.685899257659912,3.58,1.89,-0.99,4.16
15.692286968231201,3.59,2.17,-1.49,4.45
15.702274084091187,3.39,2.28,-1.89,4.5
15.712220191955566,3.57,2.29,-2.26,4.8
15.722843170166016,4.0,2.75,-2.48,5.45
15.737350940704346,4.89,3.42,-3.34,6.83
15.742413997650146,6.02,4.59,-4.87,9.0
15.752360105514526,7.12,5.69,-5.85,10.83
15.762290954589844,9.75,8.67,-7.05,14.83
15.771814107894897,12.53,12.66,-7.05,19.15
15.785326957702637,14.36,10.66,-5.86,18.81
15.79243516921997,15.1,4.87,-4.39,16.46
15.802058219909668,11.12,2.33,-5.48,12.61
15.812321186065674,6.76,6.14,-5.58,10.7
15.822924137115479,6.61,11.49,-3.64,13.74
15.83655309677124,7.74,13.43,-5.2,16.34
15.842632055282593,7.5,9.32,-7.44,14.08
15.851898193359375,6.15,5.17,-7.54,11.01
15.862186908721924,3.59,0.32,-6.57,7.49
15.872125148773193,1.91,-4.98,-6.68,8.54
15.886107921600342,1.98,-3.66,-7.62,8.68
15.89303207397461,3.72,-2.74,-8.76,9.9
15.902400970458984,7.8,-6.21,-6.04,11.65
15.912627220153809,9.99,-9.3,-3.63,14.12
15.922532081604004,10.34,-9.74,-2.77,14.47
15.93663501739502,10.55,-9.9,-1.61,14.55
15.94282603263855,9.4,-8.7,-1.37,12.88
15.952052116394043,7.7,-7.26,-2.51,10.87
15.96216106414795,6.11,-6.42,-3.68,9.59
15.972145080566406,5.08,-6.32,-3.84,8.97
15.984318256378174,4.65,-6.3,-2.99,8.38
15.992953062057495,4.81,-6.06,-1.91,7.96
16.00220012664795,5.24,-5.62,-1.34,7.79
16.012264251708984,5.18,-5.07,-1.0,7.31
16.02237319946289,4.32,-4.14,-0.67,6.02
16.03449010848999,3.02,-2.94,-0.75,4.28
16.04295301437378,2.17,-1.88,-0.91,3.01
16.052285194396973,1.83,-1.12,-1.04,2.38
16.062758922576904,1.58,-0.41,-0.94,1.88
16.07291007041931,1.43,0.42,-0.4,1.54
16.0853750705719,1.06,0.75,-0.05,1.29
16.09308910369873,-0.13,0.91,-0.44,1.01
16.102447032928467,-1.16,1.93,-1.03,2.47
16.112637996673584,-1.33,2.78,-1.11,3.27
16.122847080230713,-1.36,3.63,-0.8,3.95
16.135594129562378,-1.72,4.35,-0.67,4.72
16.143199920654297,-2.42,5.44,-0.57,5.98
16.152545928955078,-3.1,6.78,-0.44,7.46
16.162830114364624,-3.64,7.96,-0.04,8.75
16.17295217514038,-4.23,9.51,0.53,10.42
16.187259197235107,-4.76,11.02,1.17,12.06
16.193427085876465,-4.69,12.38,1.88,13.37
16.20288896560669,-4.56,13.27,2.8,14.3
16.212992191314697,-5.15,13.65,3.52,15.0
16.22330093383789,-6.9,14.01,4.22,16.17
16.23773717880249,-9.15,13.5,4.29,16.86
16.243346214294434,-11.68,11.06,3.9,16.55
16.252727031707764,-14.11,9.05,4.83,17.44
16.262794017791748,-16.31,8.96,5.82,19.49
16.273221969604492,-14.99,8.93,6.31,18.55
16.288081169128418,-12.42,10.27,6.12,17.23
16.29353404045105,-11.58,10.85,5.54,16.8
16.302791118621826,-8.66,20.86,5.02,23.13
16.31304121017456,-1.06,8.79,6.23,10.82
16.323203086853027,-0.92,-2.78,1.09,3.12
16.336431980133057,3.31,2.65,-0.06,4.24
16.343529224395752,11.56,1.32,3.33,12.1
16.352811098098755,17.91,0.4,0.47,17.92
16.362977027893066,12.56,3.43,5.28,14.04
16.372703075408936,-5.28,12.49,8.58,16.04
16.386478900909424,-13.67,6.99,-0.04,15.35
16.393676042556763,-12.59,-2.97,-4.07,13.56
16.402640104293823,-6.88,-4.54,-1.07,8.31
16.413133144378662,-6.58,0.07,-1.65,6.78
16.422854900360107,-6.44,1.01,-1.84,6.77
16.437652111053467,-3.07,-0.07,-0.74,3.15
16.443644046783447,-1.81,0.23,-0.85,2.01
16.45298409461975,-1.44,-0.41,-0.81,1.7
16.46280813217163,-0.7,-0.43,1.8,1.97
16.472933053970337,-0.9,1.08,4.21,4.43
16.485785961151123,-0.24,0.75,2.47,2.59
16.493712902069092,-0.35,0.38,0.39,0.64
16.50277304649353,-1.01,0.21,0.25,1.06
16.513244152069092,-1.95,0.12,0.18,1.96
16.523000240325928,-2.61,0.23,-1.07,2.83
16.535243034362793,-1.85,0.05,-0.68,1.97
16.543694019317627,-0.66,0.3,0.2,0.75
16.553039073944092,0.16,0.38,0.47,0.62
16.563293933868408,0.01,0.02,0.94,0.94
16.57350206375122,-0.85,0.22,0.23,0.9
16.586082935333252,-0.89,0.1,0.11,0.9
16.593674182891846,-0.56,0.04,0.53,0.77
16.60287618637085,0.07,0.25,0.21,0.33
16.613347053527832,0.23,0.27,-0.01,0.35
16.623074054718018,0.11,0.1,-0.19,0.24
16.63538122177124,-0.07,0.15,-0.31,0.35
16.64386510848999,-0.42,0.27,-0.76,0.9
16.652969121932983,0.11,0.4,-1.33,1.39
16.66342806816101,1.1,0.26,0.08,1.13
16.6733660697937,1.09,-0.06,0.25,1.11
16.686806201934814,2.31,0.42,-0.02,2.34
16.694152116775513,0.64,0.77,-0.15,1.01
16.70334815979004,0.43,0.04,-0.38,0.57
16.713757038116455,0.52,-0.21,-0.25,0.61
16.723469257354736,0.63,0.21,-0.09,0.67
16.7378511428833,0.77,0.39,0.17,0.87
16.744088172912598,0.88,0.21,0.32,0.95
16.753555059432983,0.83,0.28,0.15,0.88
16.7634859085083,0.8,0.68,0.06,1.05
16.773680210113525,1.02,0.69,-0.1,1.23
16.78710103034973,1.45,0.76,0.01,1.63
16.79412317276001,1.78,0.85,0.24,1.98
16.803198099136353,1.93,0.9,-0.04,2.12
16.81337022781372,2.08,1.24,-0.52,2.47
16.823273181915283,2.72,1.47,-0.71,3.17
16.8354229927063,3.46,1.42,-0.67,3.79
16.844157218933105,3.92,1.56,-0.45,4.24
16.85324001312256,3.99,1.64,-0.5,4.34
16.863627910614014,4.09,1.94,-1.4,4.73
16.873342990875244,4.1,2.64,-2.57,5.51
16.88522720336914,4.18,3.04,-3.35,6.15
16.894351959228516,4.59,3.38,-3.25,6.56
16.903223037719727,5.78,4.21,-4.08,8.23
16.913690090179443,7.72,5.44,-5.74,11.05
16.923871994018555,10.45,8.85,-7.07,15.41
16.937530994415283,12.55,11.99,-7.32,18.83
16.944640159606934,13.72,11.27,-6.66,18.96
16.953628063201904,15.63,9.11,-5.42,18.88
16.964054107666016,16.82,4.88,-6.66,18.73
16.973846912384033,11.71,4.72,-7.19,14.52
16.988973140716553,8.75,8.62,-3.59,12.79
16.99487590789795,10.12,13.67,-2.19,17.14
17.00359010696411,9.75,12.65,-4.99,16.73
17.014003038406372,7.6,8.56,-7.16,13.5
17.02376699447632,6.06,6.78,-7.26,11.63
17.038684129714966,4.17,2.05,-6.07,7.64
17.04457402229309,1.48,-5.78,-4.72,7.6
17.053481101989746,0.32,-8.91,-6.58,11.08
17.063961029052734,2.72,-6.89,-8.58,11.33
17.073644161224365,7.23,0.18,-5.18,8.89
17.08715510368347,11.2,-7.73,-2.0,13.75
17.09462308883667,11.09,-10.47,-1.31,15.3
17.103594064712524,10.77,-9.79,-0.82,14.57
17.113837242126465,10.68,-9.04,0.19,13.99
17.12364912033081,9.32,-7.76,-0.52,12.13
17.135848999023438,7.64,-7.03,-2.09,10.59
17.144654035568237,6.44,-6.59,-2.36,9.51
17.153746128082275,5.61,-6.49,-2.09,8.82
17.163718223571777,5.55,-6.3,-1.81,8.58
17.17375898361206,6.19,-6.13,-1.17,8.78
17.1854190826416,6.37,-5.72,-0.35,8.56
17.19499111175537,5.8,-5.04,-0.09,7.68
17.20368194580078,5.08,-4.47,-0.14,6.76
17.21411108970642,4.54,-3.91,0.04,5.99
17.22388792037964,4.11,-3.2,0.1,5.2
17.236932039260864,3.68,-2.4,0.18,4.39
17.244911193847656,3.56,-1.62,0.87,4.0
17.25370693206787,3.46,-1.12,1.36,3.88
17.264166116714478,2.69,0.03,0.81,2.8
17.273828983306885,1.82,1.47,0.47,2.38
17.285531044006348,1.3,3.07,0.38,3.35
17.29500412940979,0.96,4.96,-0.08,5.05
17.304094076156616,0.58,7.02,-0.26,7.04
17.314197063446045,0.16,9.2,0.07,9.2
17.32485604286194,-0.82,11.86,0.71,11.9
17.33791708946228,-3.15,20.37,1.88,20.69
17.345115184783936,-2.71,22.85,1.75,23.07
17.35393714904785,-7.7,14.23,5.33,17.03
17.364408016204834,-13.3,17.58,3.62,22.33
17.37415909767151,-13.78,15.57,1.87,20.87
17.38769292831421,-15.61,16.24,1.99,22.61
17.39496111869812,-18.84,16.66,3.2,25.35
17.404263019561768,-20.44,11.22,5.08,23.86
17.41454315185547,-20.15,11.35,5.18,23.69
17.424880981445312,-17.6,21.75,6.36,28.69
17.440304040908813,-11.26,17.68,7.79,22.36
17.444971084594727,-11.45,13.24,6.12,18.54
17.45407009124756,-8.63,1.01,0.38,8.69
17.464246034622192,3.65,-1.97,-2.73,4.96
17.474220037460327,20.23,1.62,-3.36,20.57
17.488152980804443,27.99,6.89,6.76,29.6
17.495456218719482,-3.37,10.67,12.92,17.09
17.504130125045776,-13.6,5.3,3.94,15.11
17.514307975769043,-11.2,-0.22,-3.54,11.74
17.52428412437439,-5.99,-3.86,-4.03,8.18
17.537559032440186,-5.73,-0.84,-3.34,6.68
17.54539394378662,-6.97,1.42,0.1,7.11
17.554142951965332,-7.51,0.38,0.55,7.53
17.564561128616333,-5.23,-0.21,-1.27,5.38
17.57481098175049,-1.92,-1.1,-0.32,2.23
17.58792495727539,-0.43,-0.32,2.68,2.73
17.59564208984375,0.64,1.57,4.31,4.63
17.60448694229126,1.52,0.91,3.39,3.82
17.614712238311768,-0.57,0.54,0.28,0.83
17.62474822998047,-2.44,-0.01,-0.54,2.49
17.638482093811035,-3.96,0.06,-1.69,4.3
17.644227981567383,-4.25,0.19,-2.77,5.07
17.65439224243164,-2.47,-0.03,0.07,2.47
17.664740085601807,-0.15,0.15,1.63,1.64
17.674524068832397,1.19,0.41,1.7,2.11
17.687289237976074,0.18,0.55,1.12,1.26
17.695553064346313,-1.28,0.42,-0.4,1.4
17.704689979553223,-1.64,0.25,-0.72,1.8
17.71500301361084,-1.35,0.3,-0.23,1.4
17.724896907806396,-0.32,0.15,-0.06,0.35
17.739179134368896,0.4,0.18,0.17,0.47
17.746087074279785,0.12,0.15,0.48,0.51
17.75480008125305,-0.4,0.21,0.03,0.45
17.76490807533264,-0.25,0.11,-0.62,0.67
17.774917125701904,-0.06,-0.03,-0.93,0.93
17.78885793685913,0.48,-0.14,-0.77,0.91
17.79598093032837,1.18,0.09,-1.09,1.6
17.804779052734375,0.9,0.39,-0.63,1.16
17.81505823135376,0.96,-0.04,0.1,0.96
17.824935913085938,1.59,0.08,0.28,1.61
17.839428901672363,0.89,0.81,0.55,1.32
17.845766067504883,0.99,0.53,0.56,1.25
17.854526042938232,1.0,0.35,0.86,1.36
17.864805221557617,0.93,0.31,0.86,1.3
17.875447034835815,0.87,0.15,0.6,1.06
17.88992691040039,0.77,0.18,0.27,0.83
17.894638061523438,0.86,0.32,0.1,0.92
17.90503692626953,1.34,0.41,-0.15,1.4
17.915101051330566,1.46,0.43,-0.26,1.54
17.92549204826355,1.71,0.49,-0.29,1.8
17.93956422805786,2.0,0.4,-0.18,2.04
17.944735050201416,2.22,0.62,-0.24,2.31
17.955032110214233,2.62,1.05,-0.43,2.85
17.96523094177246,3.27,1.34,-0.4,3.55
17.975768089294434,3.68,1.3,-0.33,3.91
17.990520000457764,3.5,1.21,-0.28,3.71
17.996129035949707,3.22,1.47,-0.6,3.59
18.004955053329468,3.39,2.1,-1.65,4.31
18.01500415802002,3.73,2.71,-2.59,5.28
18.02496099472046,3.85,2.71,-2.93,5.54
18.038135051727295,4.15,2.84,-2.96,5.83
18.044847011566162,5.44,4.01,-3.97,7.83
18.054932117462158,7.42,5.71,-5.3,10.75
18.065221071243286,11.04,8.89,-6.6,15.63
18.075557231903076,15.59,13.76,-6.61,21.81
18.088146209716797,17.21,13.22,-5.26,22.32
18.094868183135986,19.25,9.03,-3.51,21.55
18.10496425628662,17.9,5.42,-3.35,19.0
18.11526107788086,9.57,7.18,-3.5,12.46
18.125041961669922,6.94,10.93,-3.48,13.4
18.13762903213501,6.22,11.7,-4.36,13.94
18.14503502845764,4.48,7.06,-7.11,10.97
18.155012130737305,1.98,6.53,-8.55,10.93
18.16544008255005,-0.16,6.68,-8.5,10.81
18.175122022628784,4.46,-3.0,-5.95,8.01
18.186984062194824,6.33,-6.42,-5.39,10.5
18.195028066635132,6.13,-6.46,-5.43,10.43
18.20533800125122,8.3,-7.58,-2.87,11.6
18.21540594100952,9.85,-9.79,-0.37,13.89
18.225223064422607,9.88,-11.97,-0.03,15.52
18.23775291442871,9.76,-10.99,0.44,14.7
18.24510622024536,9.13,-9.29,0.34,13.02
18.25552010536194,7.87,-9.01,-1.34,12.03
18.26551103591919,6.21,-7.59,-3.04,10.26
18.275243043899536,5.81,-5.85,-3.06,8.79
18.288487911224365,6.23,-5.26,-2.52,8.53
18.295228958129883,6.51,-5.37,-2.02,8.67
18.305610179901123,6.34,-5.75,-1.68,8.72
18.315606117248535,5.55,-5.59,-1.34,7.99
18.32587504386902,4.53,-5.0,-1.1,6.83
18.339919090270996,3.22,-3.98,-1.35,5.29
18.345223903656006,2.39,-2.83,-1.77,4.1
18.355674028396606,1.96,-1.98,-1.56,3.19
18.365510940551758,1.63,-1.05,-1.39,2.38
18.375988960266113,1.21,0.04,-1.49,1.91
18.389137029647827,0.85,1.03,-1.37,1.91
18.395195960998535,0.5,1.48,-1.35,2.06
18.405406951904297,0.0,1.92,-1.7,2.56
18.41567611694336,-0.63,2.32,-1.71,2.95
18.42564606666565,-1.19,2.6,-1.32,3.14
18.44067907333374,-1.51,3.4,-1.17,3.89
18.445388078689575,-1.52,4.57,-1.16,4.95
18.455417156219482,-1.63,5.64,-0.99,5.95
18.465773105621338,-1.59,6.94,-0.78,7.16
18.475522994995117,-1.45,8.61,-0.56,8.74
18.490199089050293,-1.66,10.17,-0.14,10.3
18.49545407295227,-2.15,11.34,0.77,11.56
18.50553798675537,-2.96,12.51,2.04,13.01
18.51571011543274,-4.02,13.54,2.74,14.38
18.52573823928833,-5.07,14.31,3.72,15.63
18.53797197341919,-6.79,15.26,4.4,17.27
18.54547119140625,-10.77,15.82,3.48,19.45
18.555644035339355,-16.02,12.63,2.71,20.57
18.56554913520813,-18.39,10.22,3.91,21.39
18.57559823989868,-19.2,11.03,5.04,22.7
18.58856725692749,-17.19,10.92,5.79,21.17
18.59552812576294,-14.14,10.24,6.24,18.54
18.605721950531006,-12.64,9.49,6.0,16.9
18.61611318588257,-10.81,13.18,4.88,17.73
18.625564098358154,-0.19,9.35,4.06,10.19
18.63809609413147,4.68,-3.66,1.95,6.25
18.64562225341797,7.61,1.18,1.41,7.82
18.655685901641846,15.14,3.15,3.59,15.87
18.66606903076172,18.88,0.02,-1.37,18.92
18.67581605911255,15.49,3.3,2.61,16.05
18.688515186309814,-4.13,13.33,5.25,14.91
18.695658206939697,-13.91,6.68,-2.45,15.62
18.705801010131836,-12.81,-2.75,-5.2,14.09
18.716094970703125,-5.8,-4.21,-0.38,7.17
18.72589111328125,-5.77,-0.96,-1.2,5.97
18.738266944885254,-9.12,-0.23,0.14,9.12
18.745723247528076,-7.8,-0.23,1.79,8.0
18.75584316253662,-3.71,0.93,2.14,4.38
18.766236066818237,-1.73,-0.36,2.53,3.08
18.77592897415161,-0.9,-0.66,3.6,3.76
18.789216995239258,-1.0,0.75,3.35,3.57
18.795898914337158,-0.99,1.04,1.98,2.44
18.80637502670288,-0.18,0.66,-0.86,1.09
18.816302061080933,-1.14,0.59,-1.83,2.23
18.82669711112976,-2.29,0.15,-1.21,2.59
18.843153953552246,-3.05,-0.13,-1.99,3.64
18.84600019454956,-2.47,-0.01,-1.69,2.99
18.856372117996216,-1.0,0.23,-0.17,1.04
18.86621403694153,0.35,0.35,0.84,0.97
18.87627601623535,0.92,0.35,1.24,1.58
18.890351057052612,0.21,0.28,1.05,1.1
18.89594316482544,-0.85,0.3,0.49,1.02
18.906175136566162,-0.67,0.08,0.4,0.78
18.916378021240234,-0.26,0.13,0.06,0.29
18.926723957061768,-0.52,0.34,0.17,0.64
18.94083023071289,-0.54,0.28,0.15,0.62
18.946025133132935,-0.49,0.12,-0.16,0.52
18.95615816116333,-0.56,0.0,-0.19,0.59
18.966326236724854,-0.73,0.06,-0.26,0.77
18.976271152496338,-1.11,-0.05,-0.38,1.17
18.989123106002808,-0.51,-0.06,0.16,0.53
18.996222019195557,1.05,-0.03,0.66,1.24
19.00663113594055,2.18,0.14,0.52,2.24
19.016639232635498,2.98,0.3,0.41,3.02
19.027095079421997,3.04,-0.05,-0.07,3.04
19.04236602783203,2.05,-0.3,-0.37,2.1
19.04621124267578,0.89,-0.31,-0.83,1.25
19.05624294281006,0.69,-0.02,-0.79,1.04
19.066261053085327,0.86,0.55,-0.73,1.25
19.07635498046875,1.05,1.01,-0.36,1.5
19.08936595916748,1.32,0.98,0.03,1.64
19.09618091583252,1.38,0.98,0.24,1.7
19.106300115585327,1.69,1.17,-0.14,2.06
19.1166410446167,2.16,1.14,-0.39,2.47
19.126604080200195,2.49,1.2,-0.39,2.79
19.139918088912964,2.33,1.19,-0.67,2.7
19.146292209625244,2.0,1.29,-0.49,2.42
19.156443119049072,2.26,1.45,-0.71,2.77
19.166683197021484,2.72,2.09,-1.46,3.72
19.17639398574829,2.89,2.76,-2.46,4.69
19.18934917449951,2.94,2.97,-2.76,5.0
19.196239948272705,2.94,2.69,-2.8,4.87
19.206471920013428,3.85,3.55,-3.18,6.12
19.216771125793457,6.0,5.22,-4.33,9.05
19.227036952972412,7.97,6.12,-4.62,11.05
19.241085052490234,8.83,6.13,-4.72,11.73
19.24664807319641,10.42,8.14,-4.68,14.02
19.256688117980957,16.49,15.82,-5.2,23.43
19.267032146453857,20.07,16.08,-4.85,26.17
19.2765212059021,19.95,8.63,-2.32,21.86
19.28937816619873,14.55,4.4,-3.12,15.51
19.296457052230835,8.92,5.23,-7.17,12.58
19.306536197662354,6.19,7.47,-6.37,11.6
19.316962242126465,3.47,7.9,-3.4,9.27
19.32664394378662,2.23,5.78,-4.25,7.51
19.33941912651062,0.93,1.47,-7.09,7.3
19.346447944641113,1.13,-1.67,-9.32,9.53
19.356629133224487,5.6,-8.21,-6.91,12.1
19.36665391921997,6.01,-11.67,-3.97,13.71
19.376630067825317,7.37,-8.55,-2.6,11.58
19.388243198394775,9.19,-7.81,-1.36,12.13
19.39648413658142,9.05,-10.04,-1.08,13.55
19.406821250915527,7.52,-9.64,-0.94,12.26
19.41700506210327,7.25,-8.22,-1.22,11.02
19.4267361164093,7.44,-7.27,-1.81,10.55
19.440243244171143,7.18,-6.67,-1.81,9.96
19.446612119674683,6.66,-6.16,-1.85,9.25
19.456984996795654,6.29,-5.95,-1.63,8.81
19.467371940612793,5.94,-5.79,-1.03,8.35
19.477354049682617,5.65,-5.18,-0.76,7.7
19.4926860332489,5.5,-4.41,-0.76,7.09
19.496551990509033,5.26,-3.48,-0.77,6.35
19.506834030151367,4.87,-2.68,-0.61,5.59
19.51689624786377,4.28,-2.15,-0.32,4.8
19.526905059814453,3.65,-1.79,-0.46,4.09
19.539594173431396,3.08,-1.2,-0.71,3.38
19.54652214050293,2.39,-0.37,-0.75,2.53
19.55690622329712,1.83,0.23,-0.68,1.96
19.56699013710022,0.94,0.48,-1.37,1.72
19.57718515396118,-0.26,1.12,-2.51,2.76
19.590163230895996,-0.9,2.21,-2.92,3.77
19.596914052963257,-1.33,2.87,-2.56,4.06
19.60690712928772,-1.7,3.08,-2.49,4.31
19.617257118225098,-1.85,3.76,-2.44,4.84
19.626946926116943,-1.7,4.66,-2.14,5.4
19.640164136886597,-1.51,5.68,-1.92,6.18
19.646853923797607,-1.84,7.27,-1.45,7.63
19.656902074813843,-3.64,18.0,-0.29,18.36
19.66729211807251,-1.08,12.55,-0.17,12.59
19.677175998687744,-3.61,5.84,2.99,7.48
19.689938068389893,-10.64,7.05,4.33,13.47
19.696979999542236,-9.14,10.86,2.94,14.49
19.707442045211792,-6.04,11.83,4.0,13.87
19.71748399734497,-6.79,12.03,6.09,15.09
19.727603912353516,-8.17,11.71,6.49,15.68
19.741540908813477,-10.13,10.35,5.49,15.48
19.74702501296997,-10.71,10.68,5.86,16.22
19.757171154022217,-9.63,9.35,7.95,15.6
19.767484188079834,-7.87,7.03,9.6,14.26
19.777283191680908,-8.18,10.28,11.75,17.62
19.79072093963623,-4.82,16.11,11.29,20.25
19.797073125839233,-1.25,14.28,8.1,16.46
19.807637214660645,3.46,3.42,0.52,4.89
19.81755495071411,22.08,-2.39,-5.29,22.83
19.827518939971924,18.4,8.72,13.27,24.3
19.842035055160522,-15.08,11.4,12.89,22.88
19.84746503829956,-16.48,2.87,-9.53,19.25
19.85750102996826,-11.42,-3.11,-13.09,17.64
19.867387056350708,-12.09,-1.49,-4.95,13.14
19.877342224121094,-13.91,1.13,-1.41,14.02
19.89176106452942,-10.56,-0.87,1.54,10.7
19.897192001342773,-2.3,-0.37,3.45,4.16
19.907530069351196,1.72,0.46,3.41,3.84
19.917741060256958,1.07,-0.03,6.26,6.35
19.92798614501953,-2.22,0.34,4.13,4.7
19.942200183868408,-2.14,0.31,2.66,3.42
19.94753122329712,-3.32,0.7,0.37,3.41
19.957354068756104,-3.78,0.43,-1.9,4.25
19.967597007751465,-3.43,0.06,-1.86,3.9
19.977378129959106,-0.47,-0.28,0.2,0.58
19.99012517929077,0.52,0.23,-0.19,0.59
19.99726915359497,-0.13,0.15,-0.23,0.3
20.007451057434082,-1.14,-0.07,-0.03,1.14
20.017879962921143,-1.44,0.04,0.34,1.48
20.027708053588867,-1.17,0.13,0.43,1.25
20.041818141937256,-1.2,-0.13,0.17,1.21
20.047822952270508,-1.08,-0.19,0.21,1.11
20.057980060577393,-0.47,-0.0,0.51,0.69
20.067676067352295,0.11,0.13,0.35,0.38
20.07837200164795,0.26,0.21,0.32,0.46
20.094280242919922,0.16,0.17,-0.12,0.26
20.09756302833557,-0.34,-0.07,-0.79,0.86
20.107567071914673,-0.52,-0.12,-0.71,0.88
20.117919921875,-0.43,-0.05,-0.25,0.49
20.127592086791992,-0.45,-0.05,-0.11,0.46
20.14237904548645,-0.05,-0.13,-0.08,0.16
20.147447109222412,0.68,-0.13,-0.18,0.71
20.15798807144165,1.32,0.11,0.21,1.34
20.167930126190186,1.52,0.25,0.24,1.55
20.17820405960083,1.48,0.18,0.26,1.51
20.19259810447693,1.13,0.21,0.67,1.33
20.197550058364868,0.57,0.1,0.4,0.7
20.207726001739502,-0.1,-0.08,-0.97,0.97
20.218003034591675,-0.41,0.06,-1.72,1.76
20.22814416885376,-0.52,0.08,-1.57,1.65
20.24176597595215,-0.95,0.12,-1.63,1.89
20.247610092163086,-0.75,-0.07,-1.92,2.06
20.258064031600952,-0.45,0.12,-1.71,1.77
20.26815104484558,-0.07,0.47,-1.46,1.53
20.278459072113037,0.23,0.34,-1.32,1.38
20.2921781539917,0.18,0.2,-1.1,1.13
20.297707080841064,0.16,0.21,-1.15,1.17
20.308167934417725,0.17,1.3,-0.82,1.54
20.318181037902832,-0.21,0.75,-1.31,1.52
20.32842206954956,0.25,-0.32,-2.3,2.33
20.342307090759277,0.22,-0.82,-2.92,3.04
20.347824096679688,-0.5,-1.03,-4.04,4.19
20.357954025268555,-0.62,-0.51,-5.96,6.01
20.36818504333496,-1.12,0.34,-7.7,7.78
20.377849102020264,-1.71,0.34,-8.56,8.73
20.39186716079712,-1.33,0.32,-8.81,8.91
20.397789001464844,-0.33,0.45,-8.33,8.34
20.40824007987976,1.11,0.79,-7.49,7.61
20.4182391166687,2.27,1.2,-6.18,6.69
20.428434133529663,3.3,1.14,-4.82,5.95
20.444283962249756,3.98,1.12,-3.53,5.43
20.447813987731934,4.32,1.32,-3.32,5.6
20.45820903778076,4.86,2.05,-2.57,5.86
20.468199253082275,5.0,2.39,-3.25,6.42
20.47855806350708,5.27,3.22,-4.1,7.41
20.4971821308136,4.92,4.05,-4.72,7.93
20.497982025146484,4.34,3.43,-5.3,7.66
20.508121013641357,3.5,1.78,-5.23,6.53
20.518374919891357,2.02,1.65,-4.75,5.41
20.52826499938965,1.31,1.93,-4.45,5.02
20.54290199279785,1.04,-0.7,-3.66,3.86
20.547972202301025,0.39,-5.12,-3.55,6.24
20.558141231536865,-1.75,-6.57,-3.34,7.57
20.568481922149658,-1.98,-3.28,-1.86,4.25
20.57825803756714,3.51,-1.65,-1.95,4.34
20.593185901641846,5.33,-2.39,-0.86,5.9
20.59808921813965,4.29,-4.11,0.85,6.0
20.608546257019043,4.22,-4.21,1.12,6.06
20.618582248687744,4.63,-3.74,1.6,6.16
20.628933906555176,4.47,-3.08,2.24,5.87
20.64519500732422,4.06,-2.59,2.36,5.36
20.64809799194336,3.76,-2.62,2.25,5.1
20.658586025238037,3.82,-2.64,2.59,5.31
20.6685631275177,4.19,-2.5,3.21,5.84
20.678823947906494,4.46,-1.98,3.33,5.9
20.6925630569458,4.33,-1.67,3.14,5.6
20.69821810722351,3.65,-1.69,2.88,4.94
20.708622932434082,3.18,-1.5,2.42,4.26
20.718600034713745,2.97,-1.16,1.92,3.72
20.72891616821289,2.68,-1.3,1.61,3.38
20.744078159332275,2.7,-1.75,1.72,3.64
20.74829602241516,3.29,-1.91,2.74,4.68
20.75869607925415,4.23,-1.31,3.79,5.82
20.76887321472168,5.42,-0.74,4.58,7.13
20.778959035873413,6.13,-1.26,5.32,8.21
20.792662143707275,6.16,-1.41,5.47,8.35
20.7983341217041,6.3,-0.87,5.26,8.25
20.808979034423828,6.09,-0.79,4.74,7.75
20.818854093551636,5.41,-1.39,4.32,7.06
20.828943252563477,5.07,-1.58,4.45,6.92
20.844326972961426,5.51,-1.43,4.93,7.53
20.84862995147705,6.23,-0.85,5.21,8.16
20.858726024627686,6.95,-0.54,5.32,8.76
20.8685359954834,6.98,-0.57,5.03,8.62
20.878838062286377,6.24,-0.67,4.11,7.5
20.893481254577637,5.1,-1.18,3.07,6.06
20.898482084274292,4.29,-1.46,2.53,5.19
20.908624172210693,3.95,-1.48,2.35,4.82
20.918570041656494,3.88,-1.16,2.3,4.65
20.92868995666504,4.1,-0.75,2.25,4.73
20.942695140838623,4.16,-0.48,2.15,4.7
20.948616981506348,3.42,-0.51,1.63,3.82
20.958707094192505,2.11,-0.82,0.92,2.44
20.968868255615234,1.06,-0.89,0.12,1.38
20.978795051574707,0.58,-0.39,-0.48,0.84
20.99245595932007,0.55,0.15,-0.87,1.04
20.9986629486084,0.57,0.74,-1.13,1.46
21.00911808013916,0.04,0.39,-1.28,1.33
21.0188090801239,-0.66,-0.53,-1.39,1.62
21.02941608428955,-0.94,-0.69,-1.27,1.72
21.043376922607422,-0.55,-0.57,-0.68,1.04
21.04884099960327,0.16,-0.28,-0.03,0.32
21.05904507637024,0.84,-0.03,0.69,1.08
21.069097995758057,1.08,0.24,1.27,1.68
21.079809188842773,0.72,0.43,1.44,1.66
21.094951152801514,-0.2,0.13,1.27,1.29
21.098822116851807,-1.06,0.11,0.75,1.3
21.109097957611084,-1.74,0.48,0.52,1.87
21.119094133377075,-2.54,0.78,0.06,2.65
21.12911605834961,-3.41,0.94,-0.45,3.56
21.143917083740234,-4.23,1.07,-0.85,4.44
21.148838996887207,-4.87,1.57,-1.2,5.25
21.158952236175537,-4.36,5.51,-0.24,7.03
21.16929006576538,-3.52,3.2,-0.38,4.77
21.179219245910645,-5.37,4.51,-0.3,7.01
21.19372320175171,-5.28,6.08,-0.2,8.05
21.198849201202393,-5.49,4.49,0.43,7.1
21.209388256072998,-7.56,-1.91,3.09,8.38
21.219280242919922,-3.75,-5.1,4.46,7.74
21.22959613800049,13.54,-0.46,-0.89,13.57
21.243721961975098,15.83,7.65,-4.36,18.11
21.248889923095703,4.07,7.33,1.59,8.53
21.25907325744629,-2.1,2.56,5.59,6.49
21.269239902496338,-2.73,-1.06,5.14,5.91
21.279088973999023,-0.87,1.02,3.04,3.32
21.293013095855713,-1.42,1.41,-0.37,2.03
21.298952102661133,-2.57,-1.55,-1.22,3.23
21.30933713912964,-2.58,-1.69,-1.04,3.25
21.319371223449707,-0.76,-0.08,-2.02,2.15
21.329613208770752,-0.08,0.79,-2.07,2.21
21.343560218811035,-1.62,0.58,-0.27,1.74
21.34898805618286,-3.14,0.65,1.34,3.47
21.359225034713745,-3.08,1.09,0.82,3.36
21.369328022003174,-2.62,0.54,0.28,2.68
21.3791720867157,-2.33,-0.11,0.35,2.35
21.393131256103516,-1.97,0.12,-0.49,2.03
21.399159908294678,-1.45,0.35,-1.49,2.1
21.40941095352173,-1.27,-0.13,-1.54,2.0
21.41951322555542,-0.96,-0.41,-1.4,1.74
21.429797172546387,-0.19,-0.17,-1.61,1.63
21.444364070892334,0.42,-0.11,-1.75,1.8
21.449119091033936,0.66,-0.12,-1.17,1.34
21.459595203399658,0.84,-0.17,-0.68,1.09
21.469470977783203,0.93,-0.13,-0.61,1.11
21.479801177978516,1.05,-0.19,-0.86,1.37
21.49556303024292,1.2,-0.23,-1.06,1.61
21.49926996231079,1.18,-0.12,-0.68,1.36
21.509374141693115,0.85,-0.18,-1.34,1.59
21.519547939300537,0.79,-0.32,-1.25,1.51
21.529333114624023,0.92,-0.16,-0.62,1.12
21.545059204101562,0.61,0.01,-0.48,0.77
21.549272060394287,0.59,-0.14,-0.36,0.7
21.559514045715332,1.19,-0.27,-0.18,1.23
21.569375038146973,1.03,0.26,0.3,1.1
21.57969617843628,0.35,0.34,0.11,0.5
21.59396505355835,0.22,-0.1,-0.76,0.79
21.59945297241211,0.28,-0.25,-1.13,1.19
21.609867095947266,-0.95,0.04,-0.42,1.03
21.61979603767395,-1.72,0.2,-0.39,1.77
21.6301531791687,-0.71,-0.07,-0.04,0.71
21.64396905899048,-0.01,0.03,0.51,0.51
21.64921522140503,0.27,0.04,0.43,0.5
21.65982723236084,0.51,0.07,0.3,0.59
21.669641971588135,0.22,0.19,0.02,0.29
21.679705142974854,-0.12,0.05,-0.37,0.39
21.694270133972168,0.06,0.05,-0.68,0.68
21.699363231658936,0.44,0.14,-0.68,0.82
21.710039138793945,0.67,-0.02,-0.69,0.96
21.719858169555664,0.88,-0.01,-0.62,1.07
21.730154037475586,1.04,0.04,-0.49,1.15
21.7447452545166,0.96,0.13,-0.4,1.04
21.74945306777954,0.37,0.17,-0.88,0.96
21.76010012626648,0.48,0.01,-1.24,1.32
21.769771099090576,0.31,-0.18,-1.9,1.93
21.780460119247437,-0.09,0.29,-1.69,1.71
21.795029163360596,-0.37,0.36,-0.5,0.71
21.799630165100098,0.08,0.17,-0.3,0.35
21.81021499633789,1.55,0.95,1.17,2.16
21.820013999938965,2.24,0.72,1.09,2.59
21.830681085586548,2.6,0.7,0.99,2.86
21.844491958618164,2.52,1.12,0.37,2.78
21.849878072738647,2.28,1.23,-0.33,2.61
21.859938144683838,1.92,1.29,-0.59,2.38
21.869874954223633,1.95,1.36,-0.59,2.44
21.879982948303223,2.42,1.34,-0.45,2.8
21.894680976867676,2.7,1.54,-0.17,3.11
21.899803161621094,2.9,1.61,-0.22,3.32
21.910052061080933,2.96,1.54,-0.29,3.34
21.9201021194458,2.87,1.52,-0.3,3.26
21.930622100830078,2.89,1.39,-0.5,3.24
21.944061040878296,3.03,1.32,-0.64,3.36
21.9497709274292,3.4,1.82,-0.63,3.9
21.960290908813477,4.04,2.11,-1.41,4.77
21.970155239105225,5.21,2.21,-2.45,6.16
21.98004722595215,6.81,4.44,-2.8,8.59
21.994540214538574,8.48,7.58,-3.16,11.8
21.99992609024048,8.77,6.87,-2.15,11.34
22.01023292541504,8.09,4.25,-1.97,9.34
22.02023410797119,8.44,3.51,-1.83,9.32
22.030717134475708,10.09,3.21,-3.32,11.09
22.0447781085968,12.02,4.14,-3.82,13.27
22.04988718032837,10.95,5.55,-1.19,12.33
22.060394048690796,8.67,7.05,-0.16,11.17
22.07039213180542,7.81,6.76,-1.73,10.47
22.080908060073853,6.91,5.58,-3.64,9.59
22.095542907714844,6.04,6.64,-6.33,10.98
22.10022807121277,3.55,6.82,-7.42,10.68
22.11064100265503,-0.4,6.09,-6.88,9.19
22.120713233947754,-0.25,4.07,-6.89,8.0
22.130657196044922,7.19,0.85,-7.87,10.69
22.145661115646362,13.2,-1.45,-8.04,15.52
22.150121212005615,14.17,-1.15,-5.53,15.25
22.16026496887207,15.23,-5.34,-3.13,16.43
22.170390129089355,14.12,-7.56,-2.18,16.16
22.181028127670288,12.76,-6.55,-1.67,14.43
22.19587516784668,12.38,-5.35,-0.82,13.51
22.20051097869873,12.46,-7.47,-0.47,14.53
22.21030616760254,11.65,-8.31,-0.22,14.31
22.220463037490845,10.2,-7.02,-0.51,12.39
22.230407238006592,8.97,-5.49,-0.86,10.55
22.245742082595825,8.31,-4.83,-0.99,9.66
22.25021505355835,7.63,-4.38,-1.02,8.85
22.260622024536133,6.87,-3.7,-0.79,7.84
22.27061414718628,6.04,-2.68,-0.52,6.62
22.281028032302856,5.21,-1.95,-0.56,5.59
22.294429063796997,4.39,-1.38,-1.09,4.72
22.30036497116089,3.77,-0.42,-1.58,4.1
22.31057596206665,2.99,0.86,-1.3,3.37
22.32067108154297,2.22,2.07,-0.6,3.09
22.33054208755493,1.27,2.21,-0.78,2.66
22.345880031585693,0.17,2.87,-1.46,3.22
22.3503201007843,-0.34,3.65,-1.48,3.95
22.360679149627686,-0.65,4.34,-1.52,4.64
22.370750904083252,-0.85,5.13,-1.81,5.5
22.381206035614014,-0.92,6.03,-1.65,6.31
22.395925045013428,-1.04,7.1,-1.1,7.25
22.40040612220764,-1.46,8.27,-0.18,8.39
22.41054105758667,-2.32,9.61,0.7,9.91
22.420997142791748,-4.06,11.21,1.46,12.01
22.4307599067688,-4.99,14.03,1.88,15.0
22.445470094680786,-6.63,10.63,3.6,13.03
22.450720071792603,-9.04,13.29,5.24,16.9
22.461098194122314,-9.1,15.96,4.94,19.02
22.471086978912354,-10.17,14.58,5.44,18.59
22.4808292388916,-13.55,13.82,5.03,19.99
22.49553918838501,-17.37,10.9,4.75,21.04
22.500551223754883,-19.79,8.67,5.15,22.21
22.51090717315674,-19.43,9.35,5.36,22.21
22.52084708213806,-16.46,9.91,5.51,19.98
22.530834197998047,-14.72,9.14,4.98,18.02
22.547637939453125,-14.33,10.52,3.84,18.18
22.550721168518066,-6.87,9.67,1.2,11.92
22.560791969299316,-3.13,-0.25,0.24,3.14
22.57097816467285,-1.02,1.04,-1.42,2.03
22.580836057662964,5.86,5.31,0.41,7.91
22.59482502937317,9.68,0.4,0.28,9.69
22.6007342338562,11.78,-1.53,-4.96,12.87
22.61087417602539,12.03,7.31,1.92,14.2
22.621050119400024,-4.99,13.26,8.04,16.29
22.630966186523438,-13.54,1.7,0.05,13.64
22.645999908447266,-10.84,-2.41,-2.29,11.33
22.650667190551758,-4.86,-1.12,-0.17,4.99
22.66121196746826,-4.34,-0.24,-1.39,4.56
22.67110013961792,-3.8,0.52,-1.14,4.0
22.681793212890625,-2.41,0.21,-0.21,2.42
22.695595026016235,-3.47,0.56,-0.01,3.51
22.700815200805664,-4.17,0.16,-0.82,4.25
22.711053133010864,-2.22,-1.0,-0.74,2.54
22.721187114715576,-1.14,-0.11,0.64,1.31
22.731112957000732,-0.49,0.45,2.3,2.39
22.745995044708252,1.39,0.44,1.21,1.89
22.750847101211548,1.25,0.58,-0.46,1.45
22.7612361907959,-0.46,0.26,-0.45,0.69
22.771225929260254,-1.38,-0.16,-0.07,1.39
22.781740188598633,-2.04,0.01,-0.75,2.17
22.79608702659607,-2.35,0.01,-0.89,2.51
22.800929069519043,-1.84,-0.13,-0.36,1.87
22.811536073684692,-0.93,0.02,0.35,0.99
22.82169008255005,-0.29,0.03,1.11,1.14
22.831510066986084,0.13,-0.05,1.43,1.43
22.84709119796753,-0.44,0.17,0.18,0.5
22.851362228393555,-0.73,-0.05,-0.07,0.73
22.861545085906982,-0.55,0.0,-0.38,0.66
22.87206220626831,-0.37,0.01,-0.28,0.46
22.882160186767578,-0.03,-0.06,-0.59,0.59
22.89727020263672,-0.08,-0.02,-0.31,0.32
22.901381969451904,0.13,-0.07,-0.46,0.48
22.9114089012146,0.39,-0.1,-0.75,0.85
22.92167901992798,0.36,0.14,-0.61,0.72
22.93143105506897,0.47,0.21,-0.35,0.62
22.94680690765381,1.11,-0.11,-0.53,1.23
22.951043128967285,2.14,-0.2,-0.46,2.19
22.961706161499023,1.08,0.11,-0.28,1.12
22.971522092819214,0.15,0.16,-0.71,0.74
22.98213505744934,0.69,-0.09,-0.78,1.04
22.99797296524048,0.73,0.25,-0.97,1.23
23.001280069351196,0.3,0.42,-1.14,1.25
23.011686086654663,0.17,0.31,-1.01,1.07
23.021477222442627,0.32,0.31,-0.46,0.64
23.03197717666626,1.0,0.74,0.41,1.3
23.045958995819092,1.7,0.52,0.12,1.78
23.051226139068604,1.9,0.55,0.23,1.99
23.061357021331787,1.66,0.7,-0.07,1.8
23.07167100906372,1.49,0.77,-0.57,1.77
23.081484079360962,1.4,0.78,-0.86,1.81
23.09749698638916,1.35,0.97,-1.26,2.08
23.101278066635132,1.78,1.38,-1.12,2.51
23.111769199371338,2.49,1.68,-0.94,3.14
23.121788024902344,2.99,1.91,-0.56,3.59
23.132209062576294,3.21,1.9,-0.37,3.74
23.149104118347168,3.45,1.92,-0.89,4.04
23.151598930358887,3.46,2.29,-1.38,4.37
23.161983966827393,3.4,2.86,-1.8,4.79
23.172120094299316,3.63,3.28,-2.02,5.29
23.182197093963623,4.34,3.43,-1.91,5.85
23.19848108291626,5.18,3.48,-2.64,6.77
23.20158290863037,5.86,4.28,-3.31,7.97
23.21186399459839,6.55,4.68,-4.14,9.05
23.222398042678833,9.47,8.33,-5.31,13.68
23.23200011253357,10.44,11.85,-5.53,16.73
23.247501134872437,9.92,10.04,-3.71,14.59
23.25152015686035,12.54,7.27,-3.0,14.8
23.261917114257812,16.41,4.86,-7.92,18.85
23.272208213806152,14.25,4.55,-8.86,17.38
23.28238010406494,8.87,5.56,-2.01,10.65
23.296932220458984,8.77,9.05,0.09,12.6
23.301571130752563,10.36,10.6,-5.94,15.96
23.31194019317627,9.42,7.41,-9.82,15.49
23.32215404510498,7.97,5.85,-7.78,12.58
23.33249807357788,7.0,6.77,-5.02,10.95
23.347522020339966,6.49,4.59,-6.5,10.26
23.35169219970703,4.78,-1.1,-7.84,9.24
23.36205816268921,3.11,-3.48,-9.65,10.71
23.372316122055054,2.08,-5.43,-10.77,12.23
23.382519245147705,4.88,-7.46,-8.62,12.4
23.396687030792236,9.73,-8.42,-5.58,14.02
23.401721000671387,11.76,-8.58,-3.15,14.89
23.412095069885254,9.94,-4.7,-1.24,11.06
23.42231321334839,9.94,-6.59,-0.83,11.95
23.43203592300415,8.39,-10.63,-1.44,13.61
23.44713020324707,5.82,-9.31,-2.65,11.29
23.451792240142822,5.81,-7.58,-3.05,10.02
23.46214008331299,6.53,-6.44,-2.52,9.51
23.472905158996582,6.58,-6.03,-2.13,9.17
23.48255705833435,6.07,-5.34,-2.0,8.32
23.496906042099,5.69,-4.4,-2.11,7.49
23.502212047576904,5.3,-3.61,-1.81,6.66
23.511971950531006,4.91,-3.06,-0.77,5.83
23.522651195526123,4.15,-2.38,-0.41,4.8
23.532042026519775,3.54,-2.67,-1.36,4.63
23.550621032714844,3.06,-1.99,-1.96,4.14
23.551778078079224,2.59,-0.38,-1.98,3.28
23.562117099761963,1.78,0.79,-1.94,2.74
23.572810173034668,0.68,1.74,-2.57,3.17
23.582211017608643,-0.54,2.84,-3.33,4.4
23.599884033203125,-1.69,4.16,-3.44,5.65
23.602092027664185,-2.65,5.84,-3.59,7.34
23.61235213279724,-3.43,7.71,-4.22,9.43
23.622977256774902,-4.25,9.84,-4.36,11.57
23.63303303718567,-5.23,11.77,-3.8,13.42
23.6480610370636,-6.56,13.63,-2.83,15.38
23.652169227600098,-7.84,15.4,-1.58,17.35
23.66231107711792,-8.57,16.84,0.13,18.89
23.67293119430542,-9.86,15.75,1.3,18.62
23.682449102401733,-12.41,15.72,3.68,20.36
23.69769811630249,-14.34,17.22,4.48,22.85
23.702157974243164,-17.68,16.2,4.39,24.37
23.712594985961914,-21.5,14.08,5.1,26.2
23.723153114318848,-22.68,11.72,6.61,26.37
23.733078956604004,-21.7,11.49,8.6,26.01
23.747929096221924,-18.17,14.25,8.08,24.46
23.752202033996582,-6.89,19.05,7.98,21.77
23.76255512237549,-1.27,-0.45,8.15,8.26
23.773292064666748,4.7,3.79,2.76,6.63
23.78315806388855,19.77,3.88,2.71,20.32
23.799055099487305,26.71,0.79,0.66,26.72
23.80224323272705,17.86,3.07,6.91,19.39
23.81270694732666,-6.51,9.86,6.29,13.38
23.823094129562378,-14.61,3.83,-4.39,15.72
23.832961082458496,-14.14,0.69,-7.74,16.13
23.847772121429443,-8.65,-2.9,-3.63,9.81
23.852262020111084,-6.69,-2.04,-4.29,8.2
23.862664222717285,-9.46,0.97,-2.27,9.77
23.87321424484253,-7.65,1.28,0.33,7.76
23.883528232574463,-2.74,0.17,0.74,2.84
23.898942947387695,-1.32,-0.54,3.05,3.36
23.902765035629272,1.32,0.2,4.64,4.82
23.912596225738525,3.13,0.58,2.77,4.21
23.923964977264404,0.5,0.52,0.59,0.93
23.932716131210327,-2.06,0.28,-0.11,2.08
23.94902801513672,-2.71,-0.14,-0.74,2.81
23.952495098114014,-3.49,0.03,-2.05,4.04
23.962890148162842,-3.88,-0.05,-2.48,4.6
23.973287105560303,-1.98,-0.4,0.25,2.03
23.983190059661865,-0.13,-0.03,1.67,1.67
23.99820899963379,0.43,0.13,1.87,1.92
24.002492904663086,0.22,-0.03,1.63,1.64
24.012906074523926,-1.47,-0.02,0.52,1.55
24.023475170135498,-2.46,0.01,0.15,2.46
24.033239126205444,-1.88,0.02,-0.15,1.88
24.048527240753174,-0.53,0.0,-0.07,0.53
24.052478075027466,0.57,0.08,0.26,0.63
24.062897205352783,0.67,0.11,0.55,0.87
24.07356905937195,0.18,-0.09,0.0,0.2
24.083378076553345,-0.81,0.0,-0.43,0.91
24.09947919845581,-1.53,0.13,-1.02,1.84
24.102675914764404,-0.97,0.23,-0.9,1.34
24.112924098968506,-0.97,-0.07,-0.53,1.1
24.12349510192871,0.96,-0.22,-1.1,1.47
24.133460998535156,1.98,0.22,-0.84,2.16
24.14885711669922,1.46,0.44,-0.68,1.66
24.15260910987854,0.47,0.13,-0.77,0.91
24.16311025619507,0.74,-0.6,-0.53,1.09
24.174187183380127,1.03,-0.61,-0.67,1.37
24.183731079101562,1.45,-0.16,-0.82,1.67
24.199769020080566,1.79,0.27,-0.92,2.03
24.20272922515869,1.7,0.44,-0.81,1.93
24.212943077087402,1.63,0.43,-0.57,1.77
24.22430109977722,1.79,0.61,-0.46,1.94
24.233274936676025,1.98,0.84,-0.47,2.2
24.24949312210083,2.21,1.11,-0.66,2.55
24.252628087997437,2.46,1.3,-0.66,2.85
24.263209104537964,2.81,1.36,-0.63,3.18
24.273452043533325,3.09,1.52,-0.56,3.48
24.28335213661194,3.16,1.66,-0.6,3.61
24.298339128494263,2.99,1.79,-0.86,3.58
24.302951097488403,3.0,2.26,-1.25,3.95
24.312971115112305,3.26,2.75,-1.57,4.54
24.323554039001465,3.56,2.66,-1.8,4.79
24.333227157592773,3.55,2.49,-1.91,4.73
24.348616123199463,3.47,2.39,-1.78,4.57
24.3529691696167,3.84,2.68,-1.98,5.08
24.363073110580444,4.9,3.31,-3.44,6.84
24.374139070510864,5.95,4.33,-4.84,8.8
24.38342809677124,8.32,8.78,-6.36,13.66
24.399368047714233,9.46,13.56,-6.92,17.92
24.403398036956787,10.79,13.22,-5.41,17.9
24.413429021835327,15.54,8.22,-6.21,18.64
24.424220085144043,18.0,2.87,-10.47,21.02
24.433502197265625,12.74,3.0,-9.77,16.33
24.44974994659424,7.97,6.31,-2.17,10.39
24.45336103439331,9.17,9.8,-0.9,13.45
24.463475227355957,10.64,9.8,-6.63,15.91
24.473994255065918,7.88,6.79,-8.52,13.44
24.483952045440674,5.26,4.93,-5.18,8.87
24.49982500076294,3.55,3.74,-3.58,6.27
24.50318193435669,2.08,0.86,-6.81,7.17
24.513586044311523,0.53,-2.43,-9.15,9.48
24.524617195129395,-0.65,-5.03,-9.11,10.42
24.53425908088684,3.08,-7.48,-6.21,10.19
24.553157091140747,7.99,-5.79,-3.63,10.51
24.55396318435669,11.38,-5.45,-2.41,12.84
24.563534021377563,12.69,-9.37,-0.91,15.8
24.574331045150757,9.82,-9.22,-0.61,13.48
24.583619117736816,7.59,-8.19,-1.55,11.27
24.601652145385742,6.44,-7.28,-2.55,10.04
24.603086948394775,5.34,-6.47,-3.11,8.94
24.613444089889526,4.82,-5.79,-2.94,8.08
24.62448024749756,5.02,-5.72,-2.56,8.02
24.6336350440979,5.5,-5.99,-2.18,8.41
24.649538040161133,5.89,-5.96,-1.77,8.56
24.653401136398315,5.88,-5.45,-1.27,8.11
24.66359806060791,5.43,-4.71,-1.09,7.27
24.674605131149292,4.66,-3.84,-0.99,6.11
24.68393111228943,3.65,-2.97,-0.95,4.8
24.69993019104004,2.83,-2.73,-0.97,4.05
24.703532218933105,2.33,-2.5,-0.83,3.51
24.7135751247406,2.29,-1.67,-0.66,2.91
24.725162982940674,2.13,-0.92,-0.74,2.43
24.733939170837402,1.52,0.13,-1.0,1.82
24.74936294555664,0.78,1.28,-1.18,1.9
24.753550052642822,0.23,2.52,-1.39,2.88
24.763556957244873,-0.22,4.23,-1.76,4.58
24.774893045425415,-0.71,6.21,-1.77,6.49
24.784096240997314,-1.25,8.33,-1.2,8.5
24.79955816268921,-2.39,10.59,-0.46,10.86
24.803675174713135,-4.28,12.71,-0.06,13.41
24.813901901245117,-5.61,14.64,0.56,15.68
24.82505202293396,-5.85,15.76,1.46,16.87
24.834139108657837,-6.09,17.18,2.07,18.34
24.85024404525757,-7.93,18.93,1.87,20.6
24.85373592376709,-11.6,18.47,1.79,21.88
24.86397123336792,-15.89,14.45,2.22,21.59
24.87507724761963,-19.44,10.91,3.32,22.53
24.88422703742981,-20.63,10.13,4.88,23.49
24.900434017181396,-18.84,11.0,6.39,22.73
24.903985023498535,-14.77,10.83,6.76,19.52
24.914257049560547,-13.42,10.37,5.66,17.87
24.925113201141357,-13.47,10.47,5.28,17.85
24.934380054473877,-5.74,14.81,4.85,16.6
24.951414108276367,3.53,0.27,3.97,5.31
24.95375919342041,6.52,-3.34,0.79,7.36
24.96418809890747,10.76,-1.19,3.8,11.47
24.97578525543213,21.15,0.83,4.13,21.56
24.984169960021973,19.8,4.03,3.82,20.56
25.00045108795166,-0.83,13.17,9.04,15.99
25.003884077072144,-15.85,9.76,0.13,18.61
25.014201164245605,-15.9,-2.89,-5.34,17.01
25.025399208068848,-6.47,-5.58,-1.5,8.67
25.034120082855225,-6.22,-0.51,-0.47,6.25
25.05107021331787,-8.25,-0.05,-5.15,9.72
25.053832054138184,-3.27,0.62,-2.8,4.34
25.06437397003174,-1.02,-0.49,-1.79,2.11
25.075359106063843,-0.22,-1.3,-1.04,1.67
25.084131240844727,-0.12,-0.03,0.51,0.52
25.10092806816101,0.44,1.12,4.34,4.5
25.103796005249023,1.12,1.0,3.4,3.71
25.114360094070435,-0.88,0.66,0.42,1.17
25.125346183776855,-2.17,-0.28,-0.26,2.2
25.134217023849487,-3.26,0.0,-0.64,3.32
25.150546073913574,-3.78,0.31,-1.2,3.97
25.154254913330078,-2.56,-0.06,-0.48,2.6
25.16462516784668,-1.29,0.06,0.69,1.46
25.175546169281006,-0.67,0.25,0.5,0.87
25.184823036193848,-0.34,0.07,0.75,0.82
25.20129108428955,-0.39,-0.05,1.1,1.16
25.204039096832275,-0.85,0.24,0.51,1.01
25.214340209960938,-1.2,0.24,-0.03,1.22
25.22542095184326,-1.36,0.17,-0.17,1.38
25.23465394973755,-0.86,0.34,-0.1,0.93
25.25164794921875,-0.33,0.57,0.21,0.69
25.254301071166992,-0.37,0.79,-0.09,0.87
25.264473915100098,-1.2,0.58,-0.81,1.55
25.27556324005127,-0.68,-0.14,-1.98,2.09
25.284464120864868,0.26,0.19,-1.1,1.14
25.30114507675171,1.66,-0.13,-1.07,1.97
25.30421018600464,3.59,-0.14,-1.13,3.76
25.314345121383667,3.73,0.15,-0.43,3.75
25.32563018798828,2.37,-0.16,-0.86,2.52
25.33450412750244,1.04,-0.4,-0.69,1.31
25.350487232208252,0.72,-0.65,-0.6,1.14
25.354234218597412,1.2,-0.37,-0.57,1.37
25.364354133605957,1.25,0.26,-0.21,1.29
25.375772953033447,0.79,0.52,0.16,0.95
25.38442897796631,0.6,0.52,0.37,0.87
25.4012770652771,0.87,0.39,0.82,1.25
25.404330253601074,1.27,0.31,1.01,1.65
25.414628982543945,1.69,0.5,0.99,2.02
25.42635202407837,1.95,0.67,0.42,2.1
25.434617042541504,1.85,0.77,-0.35,2.03
25.45100498199463,1.97,1.07,-0.85,2.39
25.45431113243103,2.39,1.44,-1.52,3.17
25.46476912498474,2.98,1.75,-1.62,3.81
25.47585701942444,3.59,1.84,-1.49,4.3
25.485276222229004,4.27,1.9,-1.7,4.97
25.501705169677734,4.73,2.05,-2.18,5.59
25.504406929016113,4.41,2.25,-2.45,5.52
25.51460313796997,4.15,2.35,-2.7,5.48
25.525875091552734,4.09,3.07,-3.61,6.25
25.534717082977295,4.91,4.89,-5.98,9.15
25.551438093185425,5.91,6.2,-7.42,11.33
25.554594039916992,8.69,10.16,-8.06,15.61
25.564796924591064,10.1,13.01,-6.91,17.86
25.576282024383545,12.28,12.05,-5.66,18.11
25.58510112762451,16.59,7.95,-4.97,19.05
25.603121042251587,17.11,3.36,-7.05,18.8
25.604341983795166,10.43,4.21,-7.2,13.35
25.614740133285522,8.28,7.91,-2.47,11.71
25.625920057296753,10.91,10.45,-2.35,15.28
25.63480806350708,10.37,8.04,-5.24,14.12
25.650854110717773,6.1,3.4,-6.74,9.7
25.654770135879517,2.93,1.43,-3.75,4.96
25.664868116378784,2.17,1.75,-1.59,3.2
25.676208972930908,1.9,-0.41,-5.03,5.39
25.68502902984619,-0.76,-5.21,-7.06,8.8
25.700727939605713,-3.32,-7.17,-6.19,10.03
25.704779148101807,2.28,-8.55,-3.83,9.64
25.71488308906555,10.07,-7.7,-2.73,12.96
25.726337909698486,11.99,-3.82,-1.44,12.66
25.73518705368042,14.44,-6.8,0.34,15.96
25.751184940338135,12.72,-8.07,1.24,15.11
25.754838943481445,9.2,-6.87,-0.41,11.48
25.76505422592163,6.45,-6.97,-2.18,9.74
25.776377201080322,5.3,-6.42,-2.62,8.72
25.785202980041504,5.31,-5.9,-2.28,8.25
25.801506996154785,5.79,-5.57,-1.98,8.27
25.804831981658936,6.48,-5.38,-1.46,8.54
25.815064907073975,6.83,-4.94,-1.09,8.49
25.82658624649048,6.53,-4.19,-0.72,7.79
25.83507490158081,5.73,-3.81,-0.7,6.91
25.851656913757324,5.09,-3.45,-0.54,6.17
25.854892253875732,4.49,-2.92,-0.56,5.38
25.865337133407593,3.92,-2.35,-0.7,4.62
25.876837253570557,3.67,-1.88,-0.4,4.14
25.88599705696106,3.86,-1.02,0.08,3.99
25.902163982391357,2.96,-0.23,-0.51,3.01
25.90505313873291,1.86,0.98,-1.08,2.36
25.915337085723877,1.58,2.48,-1.46,3.28
25.926682949066162,1.46,4.22,-1.55,4.72
25.93533992767334,0.93,5.99,-1.69,6.29
25.952336072921753,0.19,7.74,-1.76,7.93
25.95494508743286,-0.91,9.87,-1.44,10.01
25.965590953826904,-3.3,14.26,-0.58,14.64
25.977025985717773,-4.79,23.11,-0.16,23.6
25.98539710044861,-4.93,10.53,0.25,11.62
26.00219202041626,-12.73,15.61,3.29,20.4
26.005255222320557,-13.76,15.37,1.33,20.67
26.01584506034851,-13.81,15.51,0.41,20.77
26.02697205543518,-16.33,17.29,0.56,23.78
26.035499095916748,-19.51,13.8,1.39,23.93
26.052413940429688,-21.38,9.23,1.71,23.34
26.05500102043152,-21.87,9.1,2.66,23.83
26.065762996673584,-17.45,16.75,4.34,24.57
26.076805114746094,-11.87,16.62,6.42,21.4
26.08558225631714,-11.46,12.39,6.95,18.25
26.104523181915283,-6.71,-0.63,2.85,7.31
26.105358123779297,5.36,-6.47,0.29,8.4
26.11566925048828,21.24,0.71,0.53,21.25
26.12680411338806,26.83,10.2,7.44,29.65
26.13566303253174,-3.73,12.16,11.43,17.1
26.153077125549316,-14.16,6.1,1.56,15.49
26.15541696548462,-10.79,-2.18,-3.74,11.62
26.16565990447998,-4.56,-5.18,-4.11,8.03
26.177382946014404,-5.93,0.18,-3.87,7.08
26.185684204101562,-9.13,3.78,-3.07,10.34
26.203604221343994,-6.74,-0.1,-2.15,7.07
26.205512046813965,-4.26,-1.76,-1.36,4.8
26.215618133544922,-2.69,0.38,-0.22,2.72
26.22716212272644,-1.08,0.11,1.07,1.52
26.235580921173096,0.18,-0.1,4.04,4.04
26.25316095352173,1.42,0.66,4.66,4.91
26.255456924438477,1.94,0.32,2.25,2.98
26.265522956848145,0.15,0.01,-0.45,0.47
26.276271104812622,-2.16,0.1,-0.96,2.36
26.285466194152832,-2.78,0.2,-1.44,3.13
26.301928997039795,-3.04,0.07,-2.9,4.2
26.305268049240112,-2.64,-0.15,-2.31,3.51
26.31546902656555,-0.91,0.1,0.13,0.92
26.326437950134277,0.51,0.37,1.36,1.49
26.335392951965332,1.29,0.29,1.54,2.02
26.351206064224243,1.04,0.18,1.19,1.59
26.355392932891846,-0.45,0.23,0.13,0.52
26.365599155426025,-1.29,0.13,-0.89,1.57
26.377490997314453,-0.96,-0.04,-1.17,1.51
26.385716915130615,-0.05,0.01,-0.43,0.43
26.402022123336792,0.36,0.04,0.36,0.51
26.40537118911743,0.27,-0.03,0.0,0.27
26.41539192199707,0.39,-0.03,-0.63,0.74
26.425279140472412,0.21,0.04,-0.72,0.75
26.435522079467773,-0.21,-0.06,-1.03,1.05
26.451406955718994,-0.38,0.26,-0.5,0.67
26.455559253692627,-0.56,-0.1,0.16,0.59
26.465700149536133,1.04,-0.26,-0.59,1.22
26.476603031158447,1.88,0.25,0.21,1.9
26.48560619354248,2.08,0.29,0.0,2.1
26.501480102539062,0.66,0.42,0.01,0.78
26.50550103187561,0.03,0.1,0.01,0.1
26.51560401916504,-0.15,0.06,-0.63,0.65
26.52535915374756,-0.06,0.12,-0.57,0.58
26.535531044006348,0.34,0.38,-0.56,0.75
26.551905155181885,0.52,0.56,-0.45,0.88
26.555620193481445,0.75,0.5,-0.37,0.97
26.56584596633911,0.95,0.59,-0.28,1.15
26.577271938323975,1.05,0.58,-0.21,1.21
26.586009979248047,1.39,0.63,-0.14,1.53
26.60774803161621,1.86,0.83,-0.2,2.04
26.608784198760986,2.42,1.1,-0.51,2.7
26.61625623703003,2.93,1.34,-0.83,3.32
26.627427101135254,3.28,1.67,-0.71,3.74
26.636049032211304,3.6,1.76,-0.39,4.02
26.65366506576538,3.55,1.85,-0.57,4.04
26.655951976776123,3.62,2.15,-1.48,4.46
26.666412115097046,3.5,2.68,-2.69,5.16
26.67746925354004,3.54,2.85,-3.28,5.6
26.68664312362671,3.7,2.69,-3.05,5.49
26.702946186065674,3.97,2.64,-2.47,5.36
26.706045150756836,5.06,3.29,-3.42,6.93
26.71639609336853,6.63,4.03,-3.79,8.63
26.72759199142456,6.71,4.64,-3.8,8.99
26.73628807067871,8.2,8.66,-4.57,12.77
26.752949237823486,10.45,12.5,-4.98,17.03
26.756114959716797,13.32,11.41,-4.27,18.05
26.76650905609131,16.37,6.18,-7.21,18.92
26.777831077575684,14.51,4.05,-9.13,17.61
26.786293029785156,10.43,5.83,-5.19,13.02
26.804079055786133,11.54,9.63,-2.11,15.17
26.80605125427246,12.97,10.96,-4.58,17.58
26.816517114639282,9.85,8.19,-8.36,15.29
26.828083038330078,6.26,6.02,-7.86,11.71
26.836859226226807,5.75,5.94,-4.38,9.35
26.8531551361084,4.38,1.82,-5.27,7.09
26.85635805130005,1.42,-4.13,-5.98,7.4
26.8666250705719,-0.62,-6.12,-8.24,10.28
26.878400087356567,-1.21,-7.3,-8.5,11.26
26.886712074279785,4.16,-8.38,-4.67,10.45
26.904449939727783,10.61,-7.31,-2.46,13.11
26.90664505958557,11.47,-3.57,-0.74,12.03
26.916738033294678,13.09,-7.05,0.4,14.87
26.927985191345215,10.9,-8.23,0.85,13.68
26.936623096466064,8.24,-6.62,-0.84,10.6
26.952847003936768,6.97,-6.71,-2.17,9.91
26.956329107284546,5.86,-6.14,-2.41,8.82
26.96669292449951,5.21,-5.75,-2.61,8.18
26.97795295715332,5.13,-5.64,-2.78,8.11
26.986871242523193,5.1,-5.62,-2.46,7.97
27.00331711769104,5.11,-5.47,-2.07,7.76
27.006410121917725,4.88,-5.13,-1.8,7.3
27.01651620864868,4.34,-4.67,-1.65,6.58
27.0280179977417,3.69,-3.83,-1.86,5.63
27.036623001098633,3.18,-3.21,-1.94,4.91
27.052860021591187,2.45,-3.28,-2.22,4.65
27.05635118484497,1.93,-2.89,-2.56,4.31
27.06689691543579,1.42,-1.53,-2.67,3.38
27.078258991241455,0.79,-0.4,-3.23,3.34
27.086884021759033,0.08,0.64,-3.9,3.95
27.103039026260376,-0.73,1.74,-4.23,4.63
27.106507062911987,-2.06,2.97,-4.7,5.92
27.11691904067993,-3.05,4.03,-4.9,7.03
27.1282000541687,-3.82,5.31,-5.2,8.35
27.13676905632019,-4.67,7.3,-5.52,10.27
27.153191089630127,-5.13,9.59,-4.91,11.93
27.156723976135254,-5.35,12.33,-3.56,13.9
27.167150020599365,-6.02,15.71,-1.56,16.89
27.178490161895752,-5.37,23.05,0.8,23.68
27.18691396713257,-3.86,13.37,2.39,14.11
27.20350217819214,-11.45,15.49,4.43,19.76
27.20658302307129,-14.19,19.62,1.62,24.26
27.217214107513428,-17.48,15.65,0.47,23.46
27.22920513153076,-19.91,9.2,3.53,22.21
27.237360954284668,-21.35,8.96,8.3,24.59
27.256272077560425,-17.3,14.77,9.19,24.53
27.257188081741333,-8.17,25.56,9.19,28.36
27.266878128051758,-5.33,15.44,12.91,20.81
27.27680492401123,-4.09,1.58,5.71,7.19
27.287018060684204,2.45,-0.88,-1.82,3.17
27.304069995880127,15.93,-1.17,-3.09,16.26
27.30650806427002,34.04,1.42,1.67,34.11
27.316890239715576,11.83,6.67,14.66,19.98
27.326623916625977,-15.92,12.4,10.28,22.64
27.33715295791626,-17.16,0.47,-4.42,17.72
27.352301120758057,-11.34,-5.7,-6.67,14.33
27.35678720474243,-8.36,-1.84,-5.62,10.24
27.366990089416504,-9.89,1.25,-4.98,11.14
27.377038955688477,-10.87,0.17,-0.29,10.87
27.38723111152649,-4.3,0.81,0.09,4.37
27.403135061264038,0.99,0.29,-0.37,1.09
27.40685796737671,0.75,-0.34,4.45,4.52
27.417010068893433,2.13,0.32,5.39,5.8
27.42727518081665,3.29,0.92,0.93,3.54
27.437246084213257,-0.48,0.66,-0.34,0.88
27.453195095062256,-4.07,0.36,-3.52,5.39
27.456950187683105,-3.94,-0.21,-2.06,4.45
27.467575073242188,-1.52,-0.15,-0.2,1.54
27.478987216949463,0.44,0.14,0.86,0.97
27.487937927246094,0.54,0.36,0.84,1.06
27.50468397140503,-0.83,0.2,0.21,0.87
27.507106065750122,-1.57,0.19,0.51,1.66
27.517495155334473,-1.54,0.64,0.49,1.73
27.52742624282837,-1.06,0.71,0.44,1.34
27.53752303123474,-0.47,0.57,0.74,1.04
27.5545072555542,0.28,0.7,0.44,0.87
27.557143211364746,0.34,0.66,0.13,0.75
27.567495107650757,-0.36,0.38,0.14,0.54
27.577338218688965,-0.97,0.16,-0.14,0.99
27.58745503425598,-1.06,-0.15,-0.56,1.2
27.60703420639038,-0.6,-0.4,-0.94,1.18
27.607872009277344,0.11,-0.37,-1.11,1.17
27.617263078689575,0.16,-0.69,-1.44,1.6
27.627546072006226,0.98,-0.45,-0.71,1.29
27.637434005737305,-0.29,-0.1,-0.56,0.63
27.655879974365234,0.32,-0.57,-1.17,1.34
27.657077074050903,1.08,-0.48,0.01,1.18
27.667459964752197,1.03,-0.43,0.11,1.12
27.67756223678589,0.63,-0.3,-0.51,0.86
27.687724113464355,0.71,-0.26,0.06,0.75
27.704498052597046,0.84,-0.25,-0.29,0.92
27.707304000854492,0.62,0.03,-0.28,0.68
27.717799186706543,0.74,0.23,-0.23,0.8
27.72747802734375,0.89,0.5,0.06,1.02
27.738303184509277,1.17,0.68,0.46,1.42
27.754988193511963,1.32,0.62,0.52,1.54
27.75739812850952,1.54,0.57,0.55,1.73
27.76775312423706,1.74,0.69,0.31,1.89
27.777674198150635,1.95,0.95,-0.08,2.17
27.787671089172363,2.07,0.83,-0.54,2.29
27.804544925689697,2.31,0.96,-0.61,2.57
27.807433128356934,2.59,1.27,-1.08,3.08
27.817795038223267,2.68,1.43,-1.5,3.38
27.82947015762329,2.92,1.76,-2.3,4.11
27.838381052017212,3.31,2.21,-3.09,5.03
27.856218099594116,3.71,2.59,-3.73,5.86
27.85728406906128,3.88,2.69,-3.82,6.07
27.867929935455322,4.22,2.74,-3.42,6.08
27.878015995025635,4.9,3.58,-3.38,6.94
27.888545989990234,6.03,4.2,-4.7,8.72
27.905415058135986,6.83,5.38,-6.01,10.56
27.907905101776123,10.34,10.73,-7.63,16.74
27.91771411895752,13.2,13.65,-8.08,20.63
27.92783212661743,15.27,10.71,-7.27,20.01
27.937941074371338,16.68,5.86,-4.9,18.34
27.95625925064087,12.5,5.47,-6.61,15.16
27.957451105117798,9.12,10.1,-8.11,15.84
27.96804904937744,11.17,13.65,-4.25,18.14
27.977793216705322,10.58,9.91,-3.94,15.02
27.9883131980896,7.03,4.67,-5.25,9.93
28.004687070846558,6.04,3.1,-3.02,7.43
28.007541179656982,6.77,2.7,-2.1,7.58
28.017816066741943,6.8,0.86,-4.79,8.36
28.02787208557129,3.21,-2.35,-5.95,7.15
28.038147926330566,-1.59,-5.99,-5.86,8.52
28.055368900299072,-3.65,-7.91,-4.22,9.67
28.057769060134888,2.85,-7.16,-3.84,8.61
28.06807804107666,9.24,-5.45,-3.98,11.44
28.077916145324707,11.69,-5.64,-2.89,13.29
28.08814001083374,12.23,-6.47,-1.72,13.94
28.104937076568604,11.42,-7.05,-0.74,13.44
28.107704162597656,9.61,-6.1,-0.74,11.4
28.118186950683594,8.19,-6.16,-1.65,10.37
28.12797713279724,6.02,-6.12,-2.1,8.83
28.138663053512573,4.84,-5.84,-2.02,7.84
28.154776096343994,4.81,-5.94,-1.5,7.78
28.157826900482178,5.08,-6.01,-0.95,7.92
28.16818404197693,4.94,-5.54,-0.51,7.44
28.178128242492676,4.64,-5.07,-0.25,6.87
28.188775062561035,4.77,-4.73,-0.04,6.71
28.20672607421875,4.76,-3.97,0.37,6.2
28.207669019699097,4.18,-3.11,0.37,5.22
28.218295097351074,2.97,-2.58,-0.28,3.94
28.228142023086548,2.01,-1.88,-0.32,2.77
28.238255977630615,1.34,-1.08,-0.04,1.72
28.25524616241455,0.82,-0.37,-0.04,0.9
28.258009910583496,0.22,0.92,-0.22,0.97
28.26849603652954,-0.61,2.54,-0.34,2.63
28.27943992614746,-1.51,4.03,-0.39,4.32
28.289226055145264,-2.11,5.91,-0.14,6.27
28.30661916732788,-2.24,8.42,0.51,8.72
28.308025121688843,-2.56,11.33,1.28,11.68
28.318331241607666,-3.62,14.36,1.91,14.93
28.328373908996582,-4.62,16.87,2.33,17.64
28.338548183441162,-5.16,18.21,2.86,19.14
28.355715036392212,-6.44,18.54,4.02,20.03
28.358257055282593,-9.17,18.1,4.51,20.78
28.36836004257202,-12.32,16.5,4.73,21.12
28.37834906578064,-15.95,13.79,5.59,21.81
28.388566970825195,-21.23,10.55,5.47,24.32
28.40497922897339,-22.52,9.72,5.04,25.04
28.40830111503601,-18.29,11.51,5.25,22.23
28.418594121932983,-14.97,12.03,4.64,19.75
28.428462028503418,-10.48,18.25,3.51,21.33
28.438660144805908,-3.62,3.77,1.68,5.48
28.455726146697998,0.14,-3.64,-5.63,6.7
28.45822310447693,5.07,-7.82,-8.24,12.44
28.468698024749756,10.96,3.61,-3.96,12.19
28.478477954864502,14.49,12.8,2.3,19.47
28.488625049591064,6.55,6.48,9.73,13.4
28.506696224212646,-7.3,4.0,7.77,11.38
28.508156061172485,-11.21,-1.07,0.38,11.26
28.518765926361084,-7.04,0.08,-0.21,7.04
28.528619050979614,-4.11,2.7,0.34,4.92
28.53917694091797,-4.15,0.08,-1.35,4.36
28.555716037750244,-5.44,0.97,-0.24,5.53
28.558425903320312,-5.19,0.66,-1.39,5.41
28.568902015686035,-3.84,-0.43,-4.11,5.64
28.578530073165894,-1.52,-1.54,-3.44,4.06
28.589282035827637,-0.74,-1.19,-0.18,1.41
28.60845708847046,1.12,1.04,0.89,1.76
28.60921812057495,2.19,1.88,2.66,3.92
28.618725061416626,0.88,0.74,1.65,2.01
28.628908157348633,-1.22,-0.4,0.17,1.29
28.638862133026123,-2.77,-0.13,0.34,2.79
28.659427165985107,-3.35,0.26,-1.1,3.53
28.66022491455078,-3.2,-0.03,-0.85,3.31
28.668646097183228,-2.12,0.11,0.47,2.17
28.678760051727295,-0.32,0.29,1.1,1.18
28.68898296356201,0.08,0.23,1.27,1.29
28.705615997314453,-0.85,0.24,0.54,1.03
28.70852303504944,-1.38,0.03,0.14,1.38
28.71873712539673,-1.54,0.08,0.29,1.56
28.728909969329834,-1.26,0.01,0.17,1.27
28.739042043685913,-0.81,0.16,0.2,0.84
28.75571918487549,-0.4,0.41,-0.09,0.57
28.758732080459595,0.05,0.66,0.28,0.71
28.76928997039795,-0.22,0.22,0.18,0.35
28.77907705307007,-0.76,0.07,-0.06,0.76
28.789423942565918,-1.2,-0.19,-0.9,1.51
28.80844211578369,-1.08,-0.17,-1.51,1.86
28.809251070022583,-0.47,-0.26,0.1,0.54
28.81891107559204,0.77,-0.25,-0.49,0.94
28.828874111175537,2.69,0.06,-0.7,2.78
28.839131116867065,3.13,0.52,0.11,3.17
28.85742211341858,1.03,0.29,-0.11,1.07
28.858696937561035,0.34,-0.22,-0.27,0.48
28.868977069854736,0.83,-0.51,-0.56,1.12
28.879502058029175,0.89,0.21,-0.53,1.05
28.88941717147827,0.93,0.67,-0.51,1.25
28.907658100128174,1.04,0.76,-0.44,1.36
28.90871524810791,1.04,0.64,0.02,1.22
28.91889524459839,1.47,0.52,0.46,1.62
28.928913116455078,1.88,0.46,0.43,1.98
28.939162254333496,2.16,0.7,0.21,2.28
28.957233905792236,2.3,1.02,-0.14,2.51
28.958864212036133,2.37,1.37,-0.64,2.81
28.96894598007202,2.51,1.43,-0.88,3.01
28.979233026504517,2.74,1.53,-0.78,3.23
28.988970041275024,3.05,1.79,-1.06,3.69
29.004427909851074,3.39,2.1,-1.41,4.22
29.008656978607178,3.7,2.33,-2.1,4.85
29.018769025802612,3.99,2.59,-2.63,5.43
29.028645038604736,4.14,2.82,-2.81,5.74
29.038787126541138,4.31,2.79,-2.64,5.77
29.0578670501709,4.88,3.38,-3.86,7.08
29.059240102767944,6.74,5.8,-5.68,10.55
29.069488048553467,10.6,11.84,-6.82,17.29
29.079827070236206,12.13,14.04,-6.13,19.54
29.08993625640869,14.02,12.15,-5.09,19.23
29.10924506187439,17.52,7.89,-5.36,19.94
29.110034942626953,18.53,3.76,-8.05,20.54
29.11951208114624,10.91,4.87,-5.13,13.0
29.129184246063232,7.12,8.86,-0.02,11.36
29.140088081359863,10.31,10.72,-1.79,14.98
29.156700134277344,10.3,6.7,-6.43,13.86
29.15917205810547,7.32,4.02,-8.74,12.08
29.16946315765381,4.79,5.32,-3.78,8.09
29.17926597595215,2.87,3.92,-2.5,5.46
29.189523220062256,1.84,0.91,-7.2,7.48
29.207469940185547,-0.05,-3.23,-8.15,8.76
29.208969116210938,-1.59,-6.5,-6.74,9.49
29.219604015350342,1.65,-9.14,-4.19,10.18
29.22931718826294,7.86,-9.68,-2.75,12.76
29.239619255065918,10.18,-8.45,-1.74,13.34
29.25688600540161,9.56,-4.78,-0.37,10.69
29.259315013885498,9.97,-7.21,0.59,12.31
29.269614219665527,8.83,-9.69,0.2,13.11
29.279332160949707,7.62,-8.4,-1.12,11.39
29.28959012031555,7.5,-7.67,-1.16,10.79
29.308956146240234,7.08,-7.03,-1.23,10.05
29.309821128845215,6.39,-6.17,-1.15,8.95
29.31965208053589,5.95,-5.4,-1.24,8.13
29.330114126205444,5.66,-4.72,-1.07,7.44
29.339887142181396,5.44,-4.23,-0.61,6.91
29.358525037765503,5.19,-3.77,-0.65,6.44
29.359323978424072,5.01,-2.99,-0.42,5.84
29.369468212127686,4.49,-2.26,-0.26,5.03
29.37962818145752,3.94,-1.82,-0.37,4.35
29.38973307609558,3.33,-1.13,-0.47,3.54
29.407143115997314,2.92,-0.13,0.01,2.92
29.409274101257324,2.67,0.7,0.01,2.76
29.4198260307312,2.12,1.57,-0.37,2.66
29.429509162902832,1.06,2.8,-0.8,3.09
29.439970016479492,0.17,4.26,-1.23,4.43
29.456658124923706,-0.47,5.96,-1.91,6.27
29.459585189819336,-1.24,8.12,-2.43,8.56
29.469797134399414,-1.97,10.27,-2.12,10.66
29.479780197143555,-3.81,13.88,-0.94,14.42
29.49004602432251,-5.72,24.21,-0.42,24.88
29.507334232330322,-4.19,7.89,0.19,8.93
29.509647130966187,-12.55,13.41,4.21,18.84
29.52040410041809,-12.26,12.96,1.67,17.91
29.529945135116577,-12.76,13.44,1.61,18.6
29.540053129196167,-14.3,17.26,0.83,22.42
29.55741596221924,-16.05,11.95,2.45,20.15
29.55962610244751,-18.69,8.5,4.75,21.07
29.569698095321655,-18.69,9.82,4.06,21.49
29.580018997192383,-17.88,12.8,5.05,22.56
29.59007501602173,-11.1,19.69,5.01,23.15
29.606945991516113,-10.19,11.93,7.33,17.31
29.609785079956055,-10.46,5.12,3.08,12.04
29.619818210601807,-1.79,-6.11,-1.64,6.57
29.629687070846558,13.38,-0.5,-1.91,13.52
29.64026403427124,31.36,8.11,1.54,32.42
29.660210132598877,12.87,12.39,12.78,21.96
29.660984992980957,-14.2,7.03,9.14,18.29
29.669984102249146,-15.11,-0.92,-1.04,15.17
29.67985725402832,-7.6,-4.87,-4.33,10.01
29.690174102783203,-3.52,-4.75,-5.54,8.1
29.70723009109497,-7.46,3.85,-2.76,8.83
29.709726095199585,-8.6,4.04,-0.12,9.5
29.719847202301025,-6.19,-2.11,-0.63,6.57
29.729857921600342,-3.67,-0.34,-1.66,4.04
29.740401029586792,-2.35,0.47,-0.69,2.49
29.758199214935303,-2.04,-0.46,3.12,3.75
29.759995937347412,-0.12,0.54,4.1,4.13
29.770235061645508,0.82,0.68,3.25,3.42
29.78046703338623,0.0,0.44,0.95,1.04
29.790693044662476,-1.05,0.18,0.59,1.21
29.807780027389526,-2.29,0.26,0.08,2.3
29.80990695953369,-3.23,0.38,-2.38,4.03
29.820309162139893,-3.25,-0.01,-2.84,4.31
29.830631256103516,-1.7,-0.04,-0.89,1.91
29.840537071228027,0.42,0.24,0.31,0.57
29.857930183410645,1.58,0.48,1.23,2.05
29.86019515991211,0.76,0.33,0.6,1.02
29.87020492553711,-0.9,0.29,-0.11,0.95
29.880637168884277,-1.34,0.35,-0.25,1.4
29.890690088272095,-0.74,0.28,-0.55,0.96
29.90966510772705,0.01,0.2,-0.22,0.29
29.91061806678772,0.1,0.03,-0.06,0.12
29.920234203338623,-0.26,-0.05,-0.21,0.33
29.9306480884552,-0.43,0.1,-0.41,0.6
29.940557956695557,-0.07,0.32,-0.66,0.73
29.959059238433838,-0.02,0.12,-0.93,0.93
29.9602689743042,0.1,-0.01,-0.71,0.71
29.970393180847168,0.44,0.12,-0.49,0.66
29.980871200561523,0.31,0.16,-0.84,0.9
29.990899085998535,0.62,-0.04,-0.26,0.67
30.008960247039795,1.26,-0.07,0.21,1.27
30.01002025604248,1.79,0.03,0.12,1.79
30.02044916152954,0.88,0.46,-0.14,1.0
30.030306100845337,0.04,0.25,0.23,0.34
30.040759086608887,0.44,-0.18,0.04,0.47
30.058316230773926,0.56,-0.09,-0.1,0.57
30.060317993164062,0.75,0.18,0.07,0.77
30.070476055145264,1.1,0.42,-0.23,1.19
30.08087921142578,1.3,0.57,-0.21,1.43
30.091138124465942,1.4,0.56,-0.17,1.51
30.10945224761963,1.61,0.65,-0.04,1.73
30.110351085662842,1.86,0.74,0.28,2.02
30.120702028274536,2.06,0.83,0.07,2.22
30.131036043167114,2.62,1.04,-0.3,2.83
30.141067028045654,3.19,1.32,-0.53,3.49
