time,ax,ay,az,atotal
0.0036001205444335938,0.07,-0.31,0.32,0.45
0.02272796630859375,1.12,0.07,-0.13,1.12
0.024082183837890625,0.91,0.21,-0.05,0.93
0.03342103958129883,0.01,0.06,0.05,0.07
0.04375815391540527,-0.41,-0.01,0.06,0.41
0.052622079849243164,-0.23,0.11,-0.01,0.25
0.07253599166870117,0.12,0.13,-0.3,0.34
0.0738682746887207,0.42,0.01,-0.33,0.53
0.08342504501342773,0.49,-0.08,-0.13,0.51
0.09386825561523438,0.2,-0.09,0.07,0.23
0.10274314880371094,-0.23,-0.15,0.25,0.37
0.1233072280883789,-0.27,-0.11,0.24,0.37
0.12464118003845215,0.07,0.12,-0.19,0.23
0.13363409042358398,0.27,0.16,-0.39,0.5
0.14388513565063477,0.16,0.03,-0.28,0.32
0.15288400650024414,-0.01,-0.06,-0.14,0.15
0.1737511157989502,-0.08,-0.08,0.05,0.12
0.17514705657958984,0.07,-0.06,0.08,0.12
0.18365097045898438,0.24,0.0,0.04,0.24
0.1942582130432129,0.12,0.0,0.12,0.16
0.20299005508422852,-0.08,-0.11,0.2,0.24
0.2242879867553711,-0.09,-0.11,0.18,0.22
0.22572803497314453,-0.12,0.0,0.13,0.17
0.2338862419128418,-0.2,0.04,0.17,0.26
0.24458909034729004,-0.23,-0.01,0.29,0.37
0.25298595428466797,-0.1,-0.12,0.23,0.27
0.2738771438598633,0.21,-0.06,-0.01,0.21
0.275313138961792,0.47,-0.02,-0.16,0.49
0.28378915786743164,0.46,-0.04,-0.07,0.46
0.2942032814025879,0.22,-0.01,0.22,0.31
0.3029632568359375,0.04,0.04,0.34,0.34
0.32353830337524414,-0.11,0.01,0.32,0.33
0.32486820220947266,-0.18,-0.08,0.15,0.24
0.33396410942077637,-0.22,-0.2,0.16,0.33
0.3444552421569824,-0.15,-0.25,0.33,0.44
0.353085994720459,0.17,-0.21,0.33,0.42
0.3744540214538574,0.57,-0.03,0.08,0.57
0.37590718269348145,0.62,0.14,-0.12,0.64
0.38395118713378906,0.37,0.18,-0.18,0.44
0.39423108100891113,0.04,0.08,-0.13,0.15
0.40313196182250977,-0.13,-0.01,-0.02,0.13
0.42441797256469727,-0.11,0.0,0.05,0.12
0.4258601665496826,-0.12,-0.09,0.12,0.19
0.4340541362762451,-0.14,-0.14,0.01,0.19
0.4444701671600342,-0.11,-0.07,-0.14,0.19
0.45323705673217773,-0.07,0.04,-0.14,0.16
0.47412109375,-0.02,0.11,-0.03,0.11
0.4755570888519287,0.02,0.15,0.04,0.15
0.4841289520263672,0.11,0.11,0.03,0.15
0.4945821762084961,0.21,0.0,0.03,0.21
0.5032401084899902,0.16,-0.07,0.06,0.18
0.5244991779327393,-0.09,-0.13,0.17,0.23
0.5259499549865723,-0.25,-0.23,0.23,0.41
0.5341782569885254,-0.15,-0.11,0.1,0.21
0.5443930625915527,-0.07,0.09,-0.01,0.11
0.5532801151275635,-0.16,0.08,0.08,0.19
0.5745341777801514,-0.2,-0.08,0.11,0.24
0.5759050846099854,-0.16,-0.09,0.1,0.2
0.5841159820556641,-0.16,-0.05,0.21,0.26
0.5945210456848145,-0.02,-0.07,0.26,0.27
0.6033010482788086,0.11,0.02,0.1,0.15
0.6236171722412109,0.0,0.09,0.05,0.1
0.6249411106109619,-0.22,0.07,0.03,0.23
0.6341590881347656,-0.37,-0.01,0.01,0.37
0.6444482803344727,-0.33,-0.11,0.13,0.37
0.6532802581787109,-0.12,-0.22,0.18,0.3
0.6738801002502441,0.28,-0.16,0.1,0.33
0.675227165222168,0.65,0.07,-0.05,0.65
0.6841621398925781,0.72,0.19,-0.13,0.75
0.6944770812988281,0.48,0.06,-0.2,0.52
0.7035479545593262,0.28,0.06,-0.3,0.41
0.7240452766418457,0.06,0.03,-0.22,0.23
0.7254290580749512,-0.13,-0.14,0.08,0.2
0.7343730926513672,-0.17,-0.15,0.11,0.25
0.7448041439056396,-0.14,0.04,-0.04,0.15
0.7535121440887451,-0.17,0.09,0.09,0.21
0.7747292518615723,-0.15,0.02,0.2,0.25
0.7761960029602051,-0.11,0.03,0.15,0.18
0.7844710350036621,-0.18,-0.01,0.17,0.24
0.7949709892272949,-0.13,-0.02,0.15,0.19
0.8037662506103516,0.12,0.01,-0.07,0.13
0.8246650695800781,0.38,-0.02,-0.04,0.38
0.8261411190032959,0.58,-0.05,0.11,0.59
0.8344831466674805,0.52,-0.05,0.14,0.54
0.8448200225830078,0.23,-0.06,0.11,0.26
0.8537211418151855,-0.08,-0.06,0.18,0.2
0.8742761611938477,-0.19,-0.04,0.35,0.4
0.8756890296936035,-0.02,-0.11,0.44,0.45
0.8847689628601074,0.21,-0.14,0.29,0.38
0.894970178604126,0.3,-0.09,0.15,0.34
0.9040200710296631,0.21,-0.04,0.1,0.23
0.9245431423187256,0.07,0.0,0.06,0.09
0.9258811473846436,0.02,0.0,-0.03,0.03
0.9347281455993652,-0.01,-0.03,-0.06,0.06
0.9453670978546143,0.03,-0.02,-0.17,0.17
0.9539389610290527,0.04,0.03,-0.16,0.16
0.9744901657104492,-0.03,0.01,0.02,0.03
0.9758672714233398,0.0,0.0,0.02,0.02
0.9848461151123047,0.03,0.01,-0.07,0.07
0.9950432777404785,0.01,0.02,-0.08,0.08
1.0042052268981934,-0.06,0.04,0.01,0.07
1.025240182876587,-0.02,-0.04,0.05,0.06
1.0267181396484375,0.06,-0.14,0.09,0.17
1.034785270690918,0.06,-0.16,0.18,0.24
1.045423984527588,-0.07,-0.1,0.16,0.2
1.0540862083435059,-0.18,0.03,0.07,0.19
1.0756990909576416,-0.15,0.17,0.04,0.23
1.0771870613098145,-0.1,0.11,0.08,0.16
1.0851011276245117,0.06,0.0,0.08,0.1
1.0955052375793457,0.12,-0.06,-0.01,0.13
1.1040611267089844,0.07,-0.06,0.0,0.09
1.1252989768981934,0.1,-0.1,0.07,0.15
1.1267480850219727,0.17,-0.07,0.01,0.18
1.1349711418151855,0.08,0.03,-0.05,0.09
1.1454501152038574,-0.14,0.06,-0.02,0.15
1.1541781425476074,-0.16,-0.04,0.06,0.17
1.1747441291809082,0.03,-0.06,-0.03,0.07
1.176192283630371,0.25,-0.01,-0.21,0.32
1.1855120658874512,0.94,-0.19,-1.54,1.81
1.1955201625823975,0.07,0.36,1.0,1.06
1.204275131225586,-0.26,-0.01,1.02,1.05
1.2246661186218262,-0.59,-0.26,0.65,0.91
1.2260231971740723,-0.24,-0.14,0.52,0.58
1.2350482940673828,0.03,0.01,-0.22,0.22
1.2454299926757812,-0.05,0.21,-0.61,0.64
1.2546372413635254,0.25,0.09,0.07,0.27
1.2793421745300293,0.12,-0.18,0.47,0.51
1.2807831764221191,-0.08,-0.26,0.23,0.35
1.2853591442108154,-0.15,-0.14,0.07,0.21
1.295396089553833,-0.19,0.04,-0.07,0.2
1.30446195602417,-0.17,0.16,-0.14,0.27
1.3276631832122803,-0.08,0.11,-0.05,0.14
1.3288969993591309,0.06,0.01,0.01,0.06
1.3355350494384766,0.07,-0.03,0.04,0.08
1.3451290130615234,-0.07,0.0,0.04,0.08
1.3544650077819824,-0.26,0.05,-0.04,0.26
1.3757860660552979,-0.34,-0.04,0.0,0.34
1.3770570755004883,-0.06,-0.11,0.05,0.13
1.3853631019592285,0.38,-0.05,-0.17,0.41
1.39534330368042,0.52,-0.04,-0.2,0.55
1.404496192932129,0.26,0.02,0.11,0.28
1.425455093383789,-0.13,0.14,0.52,0.55
1.4267101287841797,-0.2,0.05,0.56,0.59
1.435378074645996,0.1,-0.06,0.25,0.27
1.44553804397583,0.22,-0.09,0.08,0.25
1.454437255859375,0.1,-0.12,0.07,0.17
1.475600242614746,-0.07,-0.3,0.19,0.36
1.4768471717834473,-0.04,-0.39,0.21,0.44
1.485478162765503,0.21,-0.15,0.03,0.25
1.495558261871338,0.24,-0.04,0.18,0.3
1.5045552253723145,0.2,0.11,0.25,0.33
1.5256600379943848,0.25,0.18,0.26,0.4
1.526893138885498,0.39,0.01,0.43,0.58
1.5355052947998047,0.56,-0.1,0.25,0.62
1.5456950664520264,0.49,0.04,0.03,0.49
1.5545611381530762,0.07,0.04,0.2,0.21
1.575693130493164,-0.36,-0.26,0.18,0.47
1.5769400596618652,-0.29,-0.46,-0.08,0.54
1.5857219696044922,0.07,-0.31,-0.2,0.37
1.5956430435180664,0.53,0.0,-0.25,0.58
1.6045811176300049,0.9,0.27,-0.11,0.94
1.6256070137023926,0.71,0.28,0.27,0.8
1.6268672943115234,0.2,0.07,0.5,0.54
1.6357390880584717,-0.16,-0.11,0.41,0.45
1.6457619667053223,-0.36,-0.13,0.33,0.5
1.6549420356750488,-0.66,-0.16,0.53,0.86
1.6757571697235107,-0.66,-0.4,0.68,1.02
1.6769981384277344,-0.18,-0.45,0.53,0.71
1.6859421730041504,0.21,-0.32,0.41,0.56
1.695763111114502,0.41,0.09,0.11,0.43
1.7049250602722168,0.37,0.32,0.07,0.49
1.7257332801818848,0.35,0.07,0.39,0.52
1.7269740104675293,0.45,-0.11,0.64,0.79
1.7361040115356445,0.22,0.0,0.87,0.89
1.7458152770996094,-0.14,-0.21,1.08,1.1
1.7549071311950684,0.24,-0.38,0.24,0.5
1.7763121128082275,0.69,-0.21,-0.31,0.78
1.7776401042938232,0.83,0.01,0.01,0.83
1.7862019538879395,0.88,0.18,0.25,0.93
1.796234130859375,0.73,0.03,0.39,0.82
1.805150032043457,0.69,-0.28,0.16,0.76
1.8269152641296387,0.8,-0.12,-0.28,0.85
1.8282370567321777,0.66,-0.05,-0.4,0.77
1.8362791538238525,0.95,-0.04,-0.59,1.11
1.846189022064209,1.2,0.17,-0.73,1.41
1.8552660942077637,1.03,0.2,-0.32,1.09
1.8771331310272217,0.96,0.1,-0.33,1.02
1.8784971237182617,0.89,0.12,-0.74,1.16
1.886350154876709,0.43,-0.06,-0.79,0.9
1.8963580131530762,0.18,-0.08,-1.0,1.01
1.90523099899292,0.27,0.35,-0.86,0.96
1.9294352531433105,0.27,0.57,0.1,0.63
1.9307842254638672,0.07,0.44,0.54,0.7
1.9365482330322266,0.01,0.11,0.05,0.12
1.9462532997131348,0.32,0.05,-0.98,1.03
1.9552512168884277,0.41,0.05,-0.84,0.93
1.9766602516174316,0.0,-0.32,-0.05,0.32
1.9779882431030273,0.04,-0.55,-0.08,0.55
1.9863381385803223,0.57,-0.21,-0.56,0.82
1.9964210987091064,0.73,0.22,-0.72,1.04
2.0053231716156006,0.81,0.48,-0.58,1.1
2.027165174484253,1.36,0.64,-0.52,1.59
2.0285091400146484,1.77,0.34,-0.3,1.82
2.0364279747009277,1.74,-0.19,-0.18,1.75
2.0465102195739746,1.84,-0.2,-0.47,1.9
2.05539608001709,2.06,0.04,-0.81,2.21
2.077688217163086,1.77,-0.14,-0.97,2.02
2.079040050506592,1.01,-0.66,-0.15,1.21
2.0866012573242188,-0.19,-1.08,1.08,1.53
2.0965042114257812,-1.81,-1.33,2.19,3.13
2.105597972869873,-3.22,-1.13,2.46,4.2
2.1279492378234863,-3.61,-0.11,1.54,3.92
2.1293182373046875,-2.59,0.97,0.28,2.77
2.1367571353912354,-0.42,0.95,-0.57,1.18
2.1465649604797363,2.14,0.24,-0.96,2.35
2.1556262969970703,3.89,-0.62,-0.5,3.97
2.1778221130371094,4.02,-1.38,0.52,4.28
2.17913818359375,2.6,-1.2,0.81,2.97
2.186612129211426,-0.02,-0.44,0.44,0.62
2.196681022644043,-2.85,-0.13,0.42,2.88
2.205594062805176,-5.32,0.08,0.64,5.35
2.2269861698150635,-6.48,0.49,0.95,6.56
2.2283072471618652,-5.86,0.09,1.87,6.15
2.236776113510132,-4.08,-1.16,2.27,4.81
2.246631145477295,-1.5,-1.12,1.03,2.13
2.255871295928955,1.26,-0.22,-0.49,1.36
2.2775871753692627,3.32,0.69,-1.97,3.92
2.2789061069488525,3.47,1.04,-2.56,4.43
2.286677122116089,1.86,0.81,-3.16,3.75
2.2968649864196777,0.19,0.37,-2.71,2.74
2.3057212829589844,-0.8,0.07,-1.97,2.12
2.3269662857055664,-0.55,0.38,-2.16,2.26
2.328320026397705,0.11,0.71,-1.53,1.69
2.3368310928344727,0.1,0.43,0.32,0.54
2.3466272354125977,-0.63,-0.26,1.79,1.91
2.3558712005615234,-1.22,-0.65,1.7,2.19
2.3768491744995117,-1.02,-0.42,0.78,1.35
2.378098964691162,-0.17,-0.03,0.34,0.38
2.3868141174316406,0.56,0.1,0.5,0.75
2.396773099899292,0.79,-0.07,0.7,1.05
2.40588116645813,0.59,-0.36,0.51,0.85
2.4272732734680176,0.35,-0.35,0.0,0.49
2.4284892082214355,0.17,-0.19,-0.43,0.49
2.4369781017303467,-0.18,-0.1,-0.64,0.67
2.4470090866088867,-0.92,-0.09,-0.56,1.08
2.456026077270508,-1.45,0.03,-0.27,1.47
2.477858066558838,-1.27,0.25,0.06,1.29
2.4791951179504395,-0.37,0.36,0.21,0.55
2.4869601726531982,0.31,0.2,0.43,0.56
2.49700927734375,0.27,-0.07,0.76,0.8
2.5059211254119873,-0.24,-0.18,0.93,0.97
2.5285751819610596,-0.92,-0.19,0.79,1.22
2.529935121536255,-1.58,-0.17,0.65,1.71
2.537209987640381,-1.87,-0.03,0.3,1.89
2.547028064727783,-1.48,0.06,-0.17,1.49
2.5560591220855713,-0.63,-0.04,0.09,0.63
2.57829213142395,0.11,-0.03,0.37,0.38
2.579623222351074,0.87,-0.02,-0.17,0.88
2.587210178375244,0.95,-0.04,-0.11,0.95
2.597142219543457,0.17,0.13,0.68,0.71
2.606098175048828,-0.41,0.36,0.5,0.74
2.6275882720947266,-0.57,0.33,-0.19,0.68
2.62884521484375,-0.51,-0.05,-0.44,0.67
2.6372311115264893,-0.22,-0.19,-0.48,0.56
2.6470510959625244,0.14,-0.03,-0.45,0.47
2.6561150550842285,0.19,0.03,-0.08,0.2
2.677868127822876,-0.08,0.04,0.29,0.3
2.6791951656341553,-0.27,0.08,0.3,0.41
2.6873161792755127,-0.18,-0.02,0.11,0.21
2.697205066680908,-0.13,-0.11,0.38,0.41
2.7063112258911133,-0.08,-0.06,0.65,0.65
2.728549003601074,0.13,-0.03,0.48,0.49
2.7298741340637207,-0.09,-0.11,0.5,0.51
2.737420082092285,-0.68,-0.19,0.38,0.8
2.747262954711914,-1.12,-0.17,-0.07,1.13
2.756298065185547,-1.39,-0.05,-0.05,1.39
2.778456211090088,-1.44,0.1,0.34,1.48
2.779794216156006,-1.05,0.36,0.45,1.19
2.7874412536621094,-0.52,0.43,0.26,0.72
2.797682285308838,-0.45,0.18,0.44,0.65
2.8064069747924805,-0.75,0.03,0.68,1.01
2.827780246734619,-1.15,0.3,0.67,1.36
2.829030990600586,-1.69,0.88,0.61,2.0
2.8375391960144043,-2.66,1.56,0.93,3.22
2.847318172454834,-3.83,2.09,1.05,4.48
2.8563852310180664,-5.14,2.8,1.69,6.09
2.8775711059570312,-6.1,3.59,2.06,7.37
2.8787331581115723,-6.32,4.5,1.9,7.98
2.8875460624694824,-6.65,4.35,2.49,8.32
2.8974123001098633,-6.99,3.27,2.52,8.11
2.906576156616211,-6.71,2.5,1.91,7.41
2.9279980659484863,-5.21,2.25,0.91,5.74
2.929290294647217,-3.45,1.81,0.33,3.9
2.9376821517944336,-1.58,1.08,-0.03,1.91
2.947741985321045,0.15,0.41,-0.49,0.65
2.956696033477783,0.88,-0.35,-0.47,1.05
2.977936267852783,0.46,-1.28,-0.66,1.51
2.9791812896728516,-0.11,-1.85,-1.38,2.31
2.9877400398254395,-0.54,-2.28,-2.3,3.28
2.9975662231445312,-1.61,-3.03,-2.46,4.22
3.006709098815918,-3.42,-3.91,-1.94,5.54
3.0279712677001953,-5.38,-4.51,-1.55,7.18
3.029238224029541,-6.8,-4.53,-1.5,8.3
3.0376319885253906,-7.24,-4.13,-1.48,8.46
3.0476181507110596,-6.76,-3.66,-1.36,7.8
3.056725025177002,-5.84,-3.22,-1.11,6.76
3.0776891708374023,-4.9,-2.78,-0.75,5.68
3.078947067260742,-3.85,-2.31,-0.47,4.51
3.087705135345459,-2.82,-1.71,-0.42,3.32
3.0976309776306152,-1.95,-0.91,-0.52,2.21
3.1067230701446533,-1.17,-0.07,-0.61,1.32
3.1275672912597656,-0.4,0.34,-0.58,0.78
3.1286520957946777,0.41,0.3,-0.58,0.77
3.1377651691436768,1.19,0.28,-0.41,1.28
3.147576093673706,1.91,0.53,-0.37,2.01
3.1566829681396484,2.35,0.95,-0.52,2.58
3.1771292686462402,2.26,1.07,-0.51,2.55
3.178291082382202,1.85,0.83,-0.43,2.07
3.187613010406494,1.25,0.53,-0.05,1.35
3.1976821422576904,0.89,0.12,0.31,0.95
3.206770181655884,0.86,-0.38,0.36,1.0
3.2268919944763184,0.77,-0.61,0.25,1.01
3.228058099746704,0.55,-0.42,0.45,0.82
3.2377872467041016,0.64,-0.35,0.76,1.05
3.247730255126953,1.22,-0.34,1.0,1.61
3.2569479942321777,1.9,-0.17,1.16,2.23
3.279538154602051,2.51,-0.16,1.29,2.82
3.280773162841797,3.19,-0.47,1.26,3.46
3.287853240966797,3.87,-0.78,0.98,4.06
3.2978811264038086,4.5,-1.0,0.87,4.69
3.3070311546325684,5.21,-1.03,0.98,5.4
3.3273701667785645,6.06,-0.86,0.73,6.16
3.328531265258789,7.04,-0.8,0.36,7.09
3.338015079498291,7.8,-1.16,-0.12,7.88
3.3478002548217773,8.17,-1.99,-0.52,8.42
3.3570761680603027,8.2,-1.75,-1.6,8.53
3.3777811527252197,6.34,-2.06,-3.58,7.56
3.3790221214294434,3.16,0.6,-4.67,5.67
3.3881239891052246,-7.86,2.14,6.41,10.36
3.398062229156494,-17.35,6.58,5.61,19.38
3.407392978668213,-16.3,12.34,-6.13,21.34
3.4276742935180664,-10.86,14.35,-5.43,18.79
3.4288501739501953,3.26,11.0,0.02,11.47
3.4381842613220215,11.61,4.51,2.55,12.71
3.4481492042541504,11.89,-2.88,2.01,12.39
3.4572362899780273,6.19,-7.89,1.01,10.07
3.4775571823120117,3.42,-7.83,0.7,8.57
3.4787211418151855,4.53,-4.12,1.29,6.25
3.488111972808838,6.68,0.59,1.14,6.8
3.498234272003174,6.64,3.74,-0.78,7.66
3.5072712898254395,2.33,3.37,-0.85,4.18
3.5269880294799805,-2.22,1.8,-2.39,3.72
3.5281271934509277,-1.71,1.21,-4.47,4.93
3.538194179534912,0.94,0.51,0.25,1.09
3.548098087310791,1.69,0.22,0.97,1.96
3.557384967803955,1.11,0.49,0.67,1.38
3.5783681869506836,0.13,0.0,2.54,2.54
3.5796151161193848,-0.33,-0.6,2.69,2.77
3.588226079940796,-0.13,-0.52,2.0,2.07
3.598327159881592,0.55,0.12,1.03,1.17
3.607351303100586,1.38,0.4,0.34,1.47
3.6286330223083496,1.39,-0.02,0.28,1.41
3.6298933029174805,0.74,-0.15,0.07,0.75
3.638550281524658,-0.27,0.14,0.01,0.3
3.6484861373901367,-1.07,0.25,-0.01,1.09
3.657557964324951,-1.18,0.11,0.01,1.18
3.678490161895752,-0.88,-0.17,0.29,0.94
3.6796822547912598,-0.57,-0.32,0.49,0.81
3.6884970664978027,-0.35,-0.14,0.64,0.74
3.698695182800293,-0.23,0.0,0.57,0.61
3.707448959350586,-0.28,0.0,0.67,0.72
3.729012966156006,-0.52,-0.1,0.48,0.71
3.7303380966186523,-0.67,-0.14,0.14,0.69
3.738698959350586,-0.45,-0.22,-0.18,0.53
3.748544216156006,0.27,-0.12,-1.04,1.08
3.7577481269836426,0.77,-0.05,-1.13,1.36
3.778557300567627,0.87,0.02,-0.69,1.11
3.7797579765319824,0.45,0.09,-0.37,0.58
3.788163185119629,-0.33,0.1,-0.11,0.36
3.7984890937805176,-0.94,0.29,0.1,0.98
3.807634115219116,-1.03,0.45,0.25,1.15
3.8283791542053223,-0.99,0.39,0.44,1.15
3.829623222351074,-1.16,0.3,0.43,1.27
3.838778018951416,-1.29,0.44,0.3,1.39
3.848698139190674,-1.11,0.61,0.13,1.27
3.857819080352783,-0.7,0.65,-0.09,0.95
3.878709077835083,-0.36,0.52,-0.3,0.7
3.8799071311950684,-0.27,0.53,-0.39,0.71
3.8883609771728516,-0.56,0.58,-0.51,0.95
3.898621082305908,-1.04,0.54,-0.5,1.27
3.907780170440674,-1.44,0.78,-0.52,1.71
3.928131103515625,-1.96,1.17,-0.37,2.31
3.929295063018799,-2.57,1.52,-0.27,2.99
3.9384512901306152,-3.05,1.83,-0.37,3.57
3.94873309135437,-3.33,1.88,-0.34,3.83
3.9577810764312744,-3.54,1.93,-0.34,4.04
3.978689193725586,-3.78,1.73,-0.51,4.18
3.9798922538757324,-3.85,1.47,-0.85,4.2
3.988941192626953,-3.65,1.51,-1.06,4.08
3.9988911151885986,-3.41,2.02,-0.8,4.04
4.00798225402832,-3.56,2.88,-0.1,4.58
4.028578281402588,-4.78,4.05,0.5,6.28
4.029775142669678,-6.56,5.39,0.57,8.5
4.038605213165283,-8.17,7.08,0.04,10.81
4.0489583015441895,-9.06,9.33,-0.49,13.01
4.058038234710693,-9.43,11.41,-1.15,14.84
4.078869104385376,-9.42,12.09,-1.88,15.44
4.080039978027344,-8.82,11.69,-2.45,14.84
4.089398145675659,-7.73,11.9,-2.08,14.34
4.099285125732422,-6.89,12.4,-1.03,14.22
4.107941150665283,-6.31,12.44,-0.09,13.94
4.128020286560059,-6.19,11.9,1.16,13.46
4.12916898727417,-6.29,10.38,1.89,12.28
4.13864803314209,-5.54,8.68,1.99,10.48
4.1488189697265625,-5.47,6.62,1.7,8.75
4.158120155334473,-7.12,3.94,3.05,8.69
4.178857088088989,-8.52,1.58,4.13,9.59
4.180109977722168,-8.61,-0.01,3.66,9.35
4.188827991485596,-5.33,-0.42,0.01,5.34
4.199047088623047,-1.99,0.93,-3.39,4.03
4.208194255828857,-2.89,1.82,-3.37,4.79
4.229300022125244,-5.86,0.61,-1.31,6.03
4.230556011199951,-7.87,-1.59,0.36,8.03
4.238836288452148,-7.77,-3.16,0.78,8.42
4.249238967895508,-6.25,-3.77,0.67,7.32
4.258267164230347,-4.6,-3.8,0.38,5.97
4.279969215393066,-3.54,-3.52,0.29,5.0
4.281219959259033,-3.35,-3.16,0.51,4.63
4.288980007171631,-3.67,-3.11,0.99,4.91
4.2994160652160645,-3.8,-3.24,1.35,5.17
4.308382987976074,-3.74,-3.29,1.14,5.1
4.330247163772583,-3.86,-3.31,0.49,5.1
4.331496238708496,-4.42,-3.31,0.04,5.52
4.339230060577393,-5.34,-3.1,0.11,6.17
4.34958815574646,-6.14,-2.73,0.6,6.74
4.358455181121826,-6.32,-2.17,1.12,6.77
4.38002610206604,-5.48,-1.61,1.5,5.9
4.381282091140747,-3.78,-1.11,1.67,4.27
4.388937950134277,-2.1,-0.69,1.67,2.77
4.399494171142578,-1.12,-0.1,1.55,1.91
4.40847110748291,-0.53,0.85,1.29,1.63
4.430345058441162,0.13,1.99,1.15,2.3
4.431595087051392,1.03,3.25,1.26,3.63
4.439805030822754,2.5,4.58,1.15,5.34
4.449757099151611,4.46,6.01,0.75,7.52
4.458655118942261,6.32,7.32,0.27,9.67
4.481726169586182,7.29,7.94,0.25,10.78
4.483069181442261,7.47,8.04,0.88,11.0
4.489984035491943,7.81,8.09,1.43,11.33
4.499923229217529,8.93,8.42,1.42,12.35
4.5088701248168945,10.26,8.59,0.25,13.38
4.532139301300049,10.61,7.54,-1.54,13.1
4.533596992492676,11.81,6.87,-4.1,14.26
4.539558172225952,15.01,6.49,-4.48,16.95
4.550059080123901,17.45,4.13,-0.67,17.94
4.558969020843506,18.84,1.92,0.61,18.94
4.583161115646362,17.69,0.62,-1.39,17.75
4.584613084793091,17.48,0.11,-1.27,17.52
4.58958101272583,19.09,0.35,-1.9,19.18
4.599919080734253,19.92,1.26,-1.5,20.01
4.6088762283325195,17.99,0.91,-5.92,18.96
4.631863117218018,10.0,3.52,-7.49,12.98
4.633218288421631,-2.18,4.22,1.98,5.14
4.639533042907715,-9.63,7.49,-4.6,13.03
4.650031089782715,-10.16,11.45,-14.98,21.41
4.658804178237915,-9.87,12.76,-9.73,18.83
4.681251049041748,-0.9,8.1,-1.15,8.23
4.6825010776519775,9.24,4.78,3.65,11.02
4.689702987670898,14.27,1.69,5.63,15.43
4.699998140335083,11.33,-1.9,2.03,11.66
4.708935260772705,5.46,-2.6,-0.85,6.1
4.73128604888916,1.66,-0.35,-0.72,1.84
4.732542037963867,-0.77,1.62,0.85,1.98
4.739691257476807,-0.05,1.86,1.03,2.12
4.750033140182495,2.91,1.56,-0.91,3.42
4.7588582038879395,4.88,0.92,-1.07,5.07
4.7812721729278564,5.63,0.24,-0.03,5.63
4.782525062561035,5.07,-0.14,0.21,5.07
4.78964900970459,3.23,-0.28,0.35,3.26
4.800127029418945,0.85,-0.28,0.8,1.2
4.808990955352783,-1.1,0.19,0.57,1.25
4.830763101577759,-2.32,0.6,0.18,2.4
4.8319761753082275,-3.15,0.52,0.21,3.19
4.839812278747559,-2.79,0.41,-0.32,2.83
4.84993314743042,-1.22,0.3,0.06,1.25
4.858936071395874,0.29,0.19,0.18,0.39
4.8800482749938965,1.15,0.17,-0.24,1.18
4.881136178970337,1.25,0.17,-0.11,1.26
4.889719009399414,0.92,0.07,0.06,0.92
4.900071144104004,0.56,-0.16,0.07,0.58
4.909118175506592,0.3,-0.34,0.24,0.51
4.930308103561401,-0.15,-0.39,0.16,0.44
4.93156623840332,-0.44,-0.24,0.11,0.51
4.939845085144043,-0.45,-0.13,0.15,0.49
4.950045108795166,-0.34,0.08,0.1,0.36
4.958977222442627,-0.3,0.17,0.19,0.39
4.980622291564941,-0.4,0.06,0.2,0.45
4.981878280639648,-0.58,-0.01,0.1,0.58
4.989943027496338,-0.67,0.2,0.03,0.69
5.000326156616211,-0.82,0.24,0.21,0.87
5.009171962738037,-0.83,0.3,0.34,0.94
5.030710220336914,-0.72,0.27,0.8,1.1
5.031901121139526,-0.7,0.21,0.52,0.89
5.0399169921875,-0.91,0.21,-0.03,0.93
5.0502190589904785,-1.12,0.3,-0.07,1.16
5.059267044067383,-1.19,0.49,0.17,1.29
5.081119060516357,-1.5,0.79,0.17,1.7
5.082378149032593,-2.21,0.97,0.18,2.42
5.090205192565918,-3.02,1.03,-0.14,3.19
5.100348949432373,-3.52,1.11,-0.12,3.69
5.109333038330078,-3.72,1.24,-0.08,3.92
5.131001949310303,-3.88,1.58,-0.03,4.18
5.132253170013428,-4.11,2.04,-0.05,4.58
5.140390157699585,-4.28,2.12,-0.26,4.78
5.15053915977478,-4.26,2.06,-0.35,4.74
5.159601211547852,-4.49,2.13,-0.72,5.02
5.18182897567749,-4.62,2.46,-1.16,5.36
5.183165073394775,-4.78,3.16,-1.41,5.9
5.190308094024658,-5.08,4.08,-1.0,6.59
5.200786113739014,-5.94,5.29,-0.56,7.97
5.20966911315918,-7.47,7.16,-0.12,10.34
5.232225179672241,-9.24,10.0,0.11,13.61
5.23352313041687,-10.88,13.15,-0.07,17.06
5.240528106689453,-12.01,14.31,-0.66,18.69
5.250823020935059,-12.27,13.54,-1.24,18.31
5.2599029541015625,-12.02,13.21,-0.24,17.86
5.281507968902588,-10.57,13.58,1.03,17.23
5.282714128494263,-8.49,13.01,1.96,15.65
5.290264129638672,-6.92,11.46,2.52,13.62
5.300729274749756,-6.08,9.22,2.16,11.25
5.309586048126221,-5.21,6.5,2.29,8.63
5.331154108047485,-5.25,3.93,3.48,7.42
5.332394123077393,-5.63,1.71,3.83,7.02
5.340367078781128,-6.45,0.56,3.61,7.41
5.3508241176605225,-4.56,0.67,1.58,4.87
5.35982608795166,-2.29,1.63,-2.26,3.6
5.382122993469238,-4.45,1.64,-2.21,5.23
5.383453130722046,-7.82,-0.16,-0.42,7.83
5.390610218048096,-9.72,-2.63,0.14,10.07
5.401129245758057,-9.7,-4.19,0.78,10.59
5.4098711013793945,-8.0,-4.7,1.5,9.39
5.433232069015503,-5.57,-4.59,1.31,7.33
5.434628963470459,-3.63,-4.19,0.48,5.56
5.441017150878906,-2.66,-3.63,-0.46,4.52
5.451213121414185,-2.97,-3.31,-1.01,4.56
5.460072994232178,-3.58,-3.45,-0.96,5.06
5.4836320877075195,-3.78,-4.0,-0.75,5.55
5.485061168670654,-3.72,-4.56,-0.69,5.92
5.490986108779907,-3.8,-4.77,-0.73,6.14
5.501329183578491,-4.22,-4.46,-0.9,6.2
5.510118007659912,-4.99,-3.53,-1.0,6.19
5.534614086151123,-5.69,-2.4,-0.84,6.23
5.536039113998413,-6.0,-1.39,-0.65,6.19
5.541007041931152,-5.46,-0.47,-0.59,5.51
5.551251173019409,-3.56,0.31,-0.55,3.61
5.560148239135742,-1.01,0.95,-0.57,1.49
5.58394718170166,1.25,1.84,-0.92,2.4
5.585285186767578,2.78,3.19,-1.46,4.47
5.5907721519470215,3.56,4.94,-1.79,6.34
5.6015400886535645,4.07,6.97,-2.16,8.35
5.610112190246582,4.99,8.94,-2.31,10.49
5.634596109390259,7.19,10.0,-2.04,12.48
5.635940074920654,10.42,9.77,-2.11,14.43
5.640954971313477,13.01,9.02,-1.33,15.88
5.651139259338379,14.09,8.23,0.71,16.33
5.660219192504883,13.05,7.11,0.35,14.86
5.6828742027282715,12.34,6.43,-3.83,14.43
5.684185028076172,14.22,6.69,-5.98,16.81
5.690973281860352,17.14,6.82,-2.5,18.61
5.701284170150757,18.41,4.75,1.09,19.04
5.710267066955566,16.68,1.68,1.91,16.87
5.732458114624023,14.78,1.1,0.15,14.82
5.73371696472168,15.91,1.33,-1.3,16.01
5.740961074829102,20.07,0.45,-1.97,20.17
5.7513532638549805,20.42,2.41,-2.57,20.72
5.760266065597534,7.89,2.48,-0.06,8.27
5.7830810546875,-5.79,3.58,2.73,7.33
5.784457206726074,-9.99,12.45,-10.17,18.92
5.791388034820557,-11.48,18.03,-14.49,25.82
5.8015522956848145,-7.4,13.19,-1.3,15.17
5.810295104980469,7.45,7.29,3.83,11.1
5.83299708366394,16.41,2.23,1.96,16.67
5.834254264831543,16.15,-3.75,0.22,16.58
5.841215133666992,8.2,-6.49,0.05,10.45
5.851544141769409,3.03,-3.9,1.46,5.15
5.860450267791748,1.39,0.15,1.72,2.21
5.882639169692993,0.43,2.8,0.64,2.9
5.883893966674805,0.85,3.88,-1.42,4.21
5.891287088394165,1.34,2.78,-1.27,3.33
5.901532173156738,2.21,0.6,0.43,2.33
5.91042423248291,3.64,-0.8,0.47,3.75
5.932584285736084,4.46,-0.91,-0.63,4.59
5.933835029602051,3.7,-0.07,0.16,3.7
5.941317081451416,1.72,0.61,1.04,2.1
5.951645135879517,-0.32,0.64,0.88,1.13
5.960539102554321,-1.84,0.45,0.42,1.94
5.982608079910278,-2.33,0.33,-0.03,2.35
5.983850955963135,-1.89,0.36,-0.2,1.93
5.991270065307617,-0.89,0.39,-0.5,1.09
6.0017311573028564,0.33,0.28,-0.39,0.58
6.010456085205078,1.23,0.13,0.28,1.26
6.032814979553223,1.46,-0.11,0.5,1.54
6.033981084823608,0.81,-0.35,0.57,1.05
6.04138708114624,-0.06,-0.33,0.25,0.41
6.05173397064209,-0.65,0.0,0.28,0.7
6.0606091022491455,-0.79,-0.04,0.1,0.79
6.082866191864014,-0.46,-0.29,0.0,0.54
6.084042072296143,0.02,-0.38,0.13,0.4
6.0913310050964355,0.35,-0.36,0.51,0.71
6.101652145385742,0.24,-0.34,0.81,0.91
6.110688209533691,-0.24,-0.11,0.62,0.67
6.132764101028442,-0.84,0.23,0.53,1.01
6.1340131759643555,-1.32,0.41,0.62,1.51
6.141667127609253,-1.36,0.41,-0.23,1.43
6.151878118515015,-0.68,0.39,-0.89,1.18
6.160767078399658,0.05,0.34,-0.54,0.64
6.183581113815308,0.31,0.29,-0.37,0.56
6.184916019439697,0.15,0.24,-0.01,0.28
6.1917290687561035,-0.48,0.29,0.1,0.56
6.2020392417907715,-1.32,0.58,0.32,1.47
6.210860252380371,-2.35,0.75,0.54,2.52
6.233657121658325,-3.36,0.89,0.5,3.51
6.2349021434783936,-4.03,1.1,0.59,4.21
6.241659164428711,-4.55,1.39,0.43,4.77
6.252010107040405,-4.87,1.75,0.37,5.18
6.260992050170898,-4.74,2.12,-0.16,5.19
6.284080982208252,-4.53,2.15,-0.47,5.03
6.285475254058838,-4.41,2.03,-0.91,4.93
6.291906118392944,-4.43,2.05,-1.49,5.1
6.302223205566406,-4.37,2.44,-1.72,5.29
6.310959100723267,-4.33,3.2,-1.27,5.53
6.33374810218811,-5.0,4.23,-0.23,6.55
6.335007190704346,-6.58,5.54,0.52,8.61
6.34181022644043,-8.62,6.99,0.8,11.12
6.352035045623779,-10.43,8.88,0.8,13.72
6.3611900806427,-11.28,10.94,0.34,15.71
6.383674144744873,-10.97,12.01,-0.43,16.27
6.384925127029419,-10.76,11.43,-0.06,15.69
6.39214015007019,-10.2,11.3,0.85,15.24
6.402359962463379,-9.33,11.93,2.52,15.35
6.411103248596191,-8.75,11.84,3.17,15.05
6.433199167251587,-8.52,10.81,3.13,14.11
6.434386253356934,-8.32,9.14,2.76,12.66
6.441987991333008,-7.7,6.86,2.96,10.72
6.452197074890137,-7.17,4.29,3.88,9.21
6.461176156997681,-6.67,1.6,5.37,8.71
6.483259201049805,-5.57,-0.11,5.74,7.99
6.484432220458984,-3.22,-0.16,4.31,5.38
6.491855144500732,1.57,0.54,1.51,2.24
6.502138137817383,3.72,1.55,-1.22,4.21
6.51118016242981,-0.3,1.23,-0.9,1.55
6.5325822830200195,-5.98,-1.67,1.38,6.36
6.533761978149414,-10.03,-4.67,2.28,11.29
6.542036056518555,-10.95,-6.06,2.63,12.78
6.552317142486572,-9.32,-6.09,2.74,11.46
6.561182975769043,-6.79,-5.11,2.35,8.81
6.582687139511108,-4.95,-4.02,2.03,6.69
6.583856105804443,-3.73,-3.27,2.1,5.38
6.592030048370361,-2.75,-3.31,2.35,4.9
6.602391242980957,-2.08,-3.63,2.18,4.71
6.611263275146484,-2.09,-3.71,1.69,4.58
6.633990287780762,-2.74,-3.48,1.06,4.55
6.635195255279541,-3.74,-3.27,0.25,4.97
6.642200946807861,-4.75,-2.93,-0.16,5.58
6.652467250823975,-5.37,-2.17,0.24,5.79
6.66143012046814,-5.01,-1.33,1.08,5.29
6.683109283447266,-3.58,-0.56,1.78,4.03
6.684278964996338,-1.46,0.13,1.83,2.34
6.69212007522583,0.55,0.86,1.63,1.92
6.702556133270264,1.86,1.65,1.49,2.89
6.711460113525391,2.52,2.4,1.31,3.71
6.733142137527466,3.04,3.35,1.21,4.68
6.734310150146484,3.69,4.61,0.97,5.98
6.7421979904174805,4.53,6.14,0.76,7.66
6.752535104751587,5.67,7.77,0.79,9.65
6.761415004730225,6.98,8.74,1.1,11.23
6.782982110977173,7.97,8.37,1.78,11.69
6.78407621383667,8.6,7.81,2.42,11.86
6.79229211807251,9.47,8.33,2.47,12.85
6.80265998840332,10.23,8.94,2.03,13.73
6.811532974243164,10.32,7.45,0.13,12.72
6.832719087600708,10.66,7.09,-2.5,13.04
6.833823204040527,14.05,7.83,-4.25,16.63
6.842235088348389,18.87,6.32,-0.54,19.9
6.8525941371917725,20.16,2.13,1.73,20.34
6.861638069152832,17.72,-0.66,-1.52,17.79
6.882627964019775,18.03,-0.29,-2.92,18.26
6.8837151527404785,20.63,0.62,-1.6,20.7
6.892323970794678,20.85,0.38,-4.17,21.26
6.902714252471924,13.34,2.51,-8.19,15.85
6.911656141281128,0.94,2.1,-1.95,3.01
6.9327802658081055,-8.72,6.33,-3.97,11.48
6.933901071548462,-11.38,14.17,-14.44,23.21
6.942659139633179,-12.83,16.97,-9.93,23.47
6.952834129333496,-5.37,10.55,1.09,11.88
6.961780071258545,8.49,4.93,3.9,10.56
6.983036041259766,14.81,0.75,3.82,15.31
6.984140157699585,13.7,-3.91,1.53,14.32
6.992593288421631,6.62,-5.69,0.03,8.72
7.002786159515381,1.96,-3.25,1.23,3.98
7.011874198913574,0.02,0.76,1.32,1.52
7.033651113510132,0.34,3.68,0.22,3.7
7.034775257110596,1.99,4.22,-1.36,4.85
7.042603969573975,3.25,2.64,-1.65,4.5
7.052995204925537,4.09,0.32,0.52,4.13
7.061890125274658,4.62,-1.12,0.64,4.79
7.084146022796631,4.39,-0.81,-0.99,4.57
7.085316181182861,2.75,0.22,-0.43,2.79
7.092726230621338,0.7,0.86,1.09,1.55
7.103110074996948,-0.97,0.82,0.56,1.38
7.11203408241272,-1.85,0.54,-0.14,1.93
7.1334052085876465,-1.63,0.31,-0.01,1.65
7.134509086608887,-0.92,0.03,0.21,0.94
7.142660140991211,0.14,0.09,-0.28,0.32
7.152956962585449,0.95,0.27,-0.09,0.99
7.1619720458984375,1.03,0.18,0.16,1.05
7.182967185974121,0.59,0.04,0.09,0.59
7.184031009674072,-0.15,-0.15,0.13,0.24
7.192749977111816,-0.84,-0.23,0.34,0.93
7.202919960021973,-1.2,-0.16,0.4,1.27
7.211986064910889,-1.14,-0.11,0.42,1.21
7.232728004455566,-0.83,-0.25,0.46,0.98
7.233759164810181,-0.72,-0.41,0.53,0.98
7.2426841259002686,-0.76,-0.42,0.65,1.08
7.253080129623413,-0.93,-0.37,0.6,1.16
7.262121200561523,-1.09,-0.25,0.37,1.17
7.283372163772583,-1.05,-0.07,0.19,1.06
7.284471035003662,-0.83,0.16,0.04,0.84
7.293076038360596,-0.57,0.35,0.42,0.78
7.303218126296997,-0.47,0.27,0.62,0.82
7.312211036682129,-0.5,0.16,0.54,0.75
7.334176063537598,-0.64,0.27,-0.18,0.71
7.3353190422058105,-0.66,0.44,-0.45,0.91
7.343031167984009,-0.67,0.52,0.11,0.85
7.353186130523682,-1.17,0.73,0.09,1.38
7.362281084060669,-2.04,0.92,-0.04,2.23
7.38399600982666,-2.74,0.96,-0.12,2.9
7.385123252868652,-3.1,1.11,-0.27,3.3
7.3929972648620605,-3.39,1.34,-0.17,3.64
7.403417110443115,-3.71,1.86,-0.2,4.15
7.4123430252075195,-4.03,2.34,-0.47,4.68
7.4342570304870605,-4.25,2.34,-0.7,4.9
7.435431003570557,-4.33,1.82,-0.85,4.77
7.443185091018677,-4.47,1.74,-1.34,4.98
7.453516006469727,-4.51,2.02,-1.28,5.1
7.462424278259277,-4.23,2.87,-0.61,5.14
7.484694004058838,-4.79,4.24,0.51,6.41
7.485866069793701,-6.29,5.78,1.13,8.61
7.493408203125,-8.36,7.48,1.24,11.28
7.503662109375,-10.2,9.36,0.62,13.85
7.512557029724121,-11.33,10.93,-0.09,15.74
7.535477161407471,-11.68,11.73,-0.94,16.58
7.5367512702941895,-11.82,11.85,-1.25,16.78
7.54383111000061,-11.88,12.29,-0.33,17.09
7.554046154022217,-10.88,13.02,0.92,16.99
7.562716007232666,-9.43,12.8,2.48,16.09
7.585076093673706,-8.2,11.61,3.36,14.6
7.586241245269775,-7.21,9.57,3.85,12.58
7.593324184417725,-5.72,6.72,3.93,9.66
7.603624105453491,-4.37,3.85,3.81,6.95
7.612543106079102,-3.62,1.38,3.61,5.29
7.6345109939575195,-4.23,0.09,3.18,5.29
7.635660171508789,-4.5,-0.07,3.25,5.55
7.643440246582031,-1.42,0.41,-0.25,1.49
7.653726100921631,-1.85,0.77,-1.33,2.4
7.662700176239014,-5.28,-0.3,0.26,5.29
7.685240268707275,-8.07,-2.41,0.85,8.46
7.686417102813721,-9.36,-4.23,1.38,10.36
7.693547248840332,-8.99,-5.37,1.94,10.64
7.7038490772247314,-7.11,-5.54,1.87,9.2
7.712773084640503,-5.19,-5.17,1.37,7.45
7.734683036804199,-3.65,-4.5,0.81,5.85
7.735791206359863,-2.74,-3.85,0.34,4.73
7.7435302734375,-2.47,-3.5,0.04,4.28
7.753798007965088,-2.58,-3.58,-0.22,4.41
7.762814998626709,-2.96,-3.92,-0.48,4.93
7.784412145614624,-3.58,-4.26,-0.73,5.61
7.785503149032593,-4.34,-4.35,-0.88,6.2
7.793447971343994,-4.92,-3.96,-0.88,6.37
7.803920269012451,-5.22,-3.09,-0.64,6.09
7.812798023223877,-4.96,-2.12,-0.53,5.42
7.834017276763916,-4.03,-1.42,-0.62,4.31
7.835103988647461,-2.58,-0.88,-0.73,2.82
7.843670129776001,-0.89,-0.31,-0.81,1.24
7.853833198547363,0.57,0.52,-0.81,1.11
7.862974166870117,1.63,1.57,-0.75,2.38
7.884328126907349,2.21,2.71,-0.69,3.56
7.885409116744995,2.41,3.89,-0.78,4.64
7.893691062927246,2.69,5.51,-1.0,6.21
7.903939247131348,3.86,7.6,-1.12,8.59
7.913045167922974,6.39,9.24,-1.56,11.34
7.934659957885742,9.31,9.46,-1.79,13.39
7.935768127441406,10.85,8.72,-0.71,13.93
7.943762302398682,11.24,8.59,0.78,14.16
7.954123020172119,11.31,9.14,-0.05,14.54
7.96317195892334,11.88,8.81,-3.77,15.26
7.984631061553955,13.45,8.99,-5.06,16.95
7.985721111297607,16.49,8.78,-3.0,18.92
7.993926048278809,18.36,5.27,-1.45,19.15
8.004245281219482,18.55,1.41,-1.06,18.63
8.013208150863647,18.28,1.21,-0.96,18.34
8.035056114196777,18.29,1.32,-2.9,18.56
8.036164283752441,20.41,2.56,-5.53,21.3
8.04396915435791,14.83,3.16,-2.06,15.3
8.05430817604065,-1.18,0.17,5.04,5.17
8.063225269317627,-9.31,6.65,-3.57,11.98
8.084858179092407,-10.31,16.52,-15.82,25.08
8.085973262786865,-12.01,17.35,-8.03,22.57
8.094034194946289,-4.44,9.53,1.92,10.68
8.10425329208374,9.18,3.31,3.16,10.25
8.113319158554077,16.17,-1.49,2.78,16.47
8.134509086608887,15.71,-5.66,-0.52,16.7
8.135619163513184,8.99,-5.46,-0.9,10.55
8.144066095352173,3.82,-1.03,1.62,4.27
8.154486179351807,1.68,2.32,1.0,3.03
8.163347244262695,0.44,3.9,-1.6,4.23
8.184600114822388,-0.54,3.3,-2.72,4.31
8.185705184936523,-0.16,1.64,-0.7,1.79
8.194070100784302,2.32,0.01,1.12,2.57
8.204454183578491,4.58,-0.83,-0.04,4.65
8.213401079177856,4.79,-0.51,-0.2,4.82
8.235337257385254,2.7,0.1,1.06,2.9
8.236495018005371,0.52,0.45,1.35,1.51
8.244166135787964,-0.98,0.61,0.51,1.26
8.254510164260864,-2.1,0.51,0.17,2.16
8.263543128967285,-2.19,0.36,-0.09,2.22
8.28561019897461,-1.04,0.27,-0.22,1.09
8.286678075790405,0.44,0.27,-0.34,0.61
8.29430103302002,1.04,0.18,-0.22,1.07
8.304664134979248,0.64,0.05,0.06,0.64
8.313546180725098,0.07,0.01,0.09,0.11
8.335172176361084,-0.35,0.04,0.21,0.41
8.336277961730957,-0.6,-0.07,0.2,0.63
8.344213008880615,-0.66,-0.29,0.36,0.8
8.354671001434326,-0.67,-0.41,0.42,0.89
8.363708019256592,-0.73,-0.26,0.32,0.83
8.384806156158447,-0.73,-0.09,0.43,0.85
8.385894298553467,-0.74,-0.03,0.59,0.94
8.394201278686523,-1.0,-0.03,0.78,1.26
8.404795169830322,-1.58,-0.13,1.04,1.89
8.41369915008545,-1.81,-0.13,0.19,1.82
8.435245990753174,-1.36,-0.04,-0.3,1.39
8.436357021331787,-0.46,0.09,-0.52,0.7
8.444525241851807,0.31,0.29,-0.55,0.69
8.454950094223022,0.49,0.5,-0.33,0.77
8.463836193084717,-0.1,0.6,-0.08,0.61
8.485289096832275,-1.06,0.62,0.04,1.22
8.486399173736572,-1.9,0.85,0.07,2.08
8.494590282440186,-2.61,1.14,0.22,2.85
8.504816055297852,-3.27,1.37,0.12,3.54
8.513813018798828,-3.77,1.35,-0.06,4.0
8.534922122955322,-3.97,1.43,-0.25,4.22
8.536014080047607,-4.15,1.68,-0.32,4.48
8.544603109359741,-4.38,1.89,-0.56,4.8
8.554933071136475,-4.33,1.91,-0.92,4.82
8.563862085342407,-4.14,1.92,-0.92,4.65
8.585508108139038,-4.31,2.07,-1.39,4.97
8.586619138717651,-4.66,2.35,-1.82,5.52
8.59469223022461,-4.75,3.08,-1.77,5.93
8.604928970336914,-5.14,4.43,-0.68,6.81
8.614033222198486,-6.48,6.1,0.17,8.9
8.635508060455322,-8.67,7.92,0.61,11.75
8.636595249176025,-10.9,9.88,0.15,14.71
8.64462423324585,-12.5,11.31,-0.67,16.87
8.655066013336182,-12.73,11.39,-1.95,17.19
8.664181232452393,-12.25,11.13,-1.68,16.63
8.685707092285156,-10.94,12.21,-0.82,16.41
8.686804294586182,-9.34,13.67,1.02,16.58
8.6946382522583,-8.42,13.53,2.2,16.08
8.705058097839355,-8.15,11.48,2.31,14.26
8.714105129241943,-7.3,8.79,2.62,11.72
8.73569107055664,-5.73,5.94,2.57,8.64
8.736799240112305,-5.27,3.23,2.95,6.84
8.744706153869629,-6.2,1.2,2.9,6.94
8.754961967468262,-7.92,0.52,3.41,8.63
8.764137268066406,-6.06,0.9,3.42,7.01
8.78549313545227,-1.89,1.44,-0.42,2.41
8.786600112915039,-2.95,1.19,-0.92,3.31
8.794739246368408,-6.95,-0.81,0.3,7.0
8.80506706237793,-10.09,-3.38,0.28,10.64
8.814317226409912,-11.18,-4.98,0.88,12.27
8.83607006072998,-10.04,-5.63,1.4,11.59
8.837178230285645,-7.14,-5.04,1.54,8.87
8.844794273376465,-4.5,-3.97,1.51,6.18
8.855112075805664,-2.62,-2.9,1.08,4.05
8.864317178726196,-1.64,-2.33,0.53,2.89
8.88628625869751,-1.83,-2.79,0.43,3.36
8.887391090393066,-2.88,-3.84,0.81,4.86
8.894958972930908,-3.98,-4.53,0.94,6.1
8.90541410446167,-4.81,-4.53,0.89,6.66
8.914391040802002,-5.34,-3.72,0.92,6.57
8.936347961425781,-5.51,-2.21,0.64,5.97
8.9374520778656,-4.93,-0.89,0.35,5.02
8.945211172103882,-3.91,0.15,-0.01,3.91
8.955341100692749,-2.42,0.85,-0.74,2.66
8.96435809135437,-0.64,1.36,-1.0,1.8
8.986179113388062,1.03,1.95,-0.76,2.33
8.987245082855225,2.39,2.92,-0.63,3.82
8.995090961456299,3.13,4.36,-0.75,5.41
9.005537986755371,3.4,6.0,-1.02,6.97
9.014425277709961,3.7,7.43,-1.01,8.36
9.036432266235352,4.94,8.65,-0.64,9.98
9.037549018859863,7.89,9.63,-0.89,12.48
9.0453462600708,11.06,9.62,-1.11,14.7
9.055572032928467,12.55,8.57,-0.18,15.19
9.064614295959473,12.17,7.83,0.46,14.47
9.086137294769287,11.36,7.85,-1.31,13.87
9.087226152420044,12.12,7.77,-4.76,15.16
9.095324039459229,14.56,7.96,-4.67,17.23
9.105676174163818,17.75,6.97,-2.01,19.17
9.114737033843994,19.63,4.12,0.01,20.05
9.136561155319214,18.9,1.21,-0.69,18.95
9.137671947479248,18.06,0.05,-2.57,18.24
9.145555019378662,18.89,0.6,-4.12,19.34
9.155872106552124,20.69,0.61,-3.05,20.92
9.164810180664062,20.25,2.8,-8.36,22.08
9.186909198760986,8.21,4.33,-2.99,9.75
9.188032150268555,-6.3,4.79,4.45,9.07
9.19554615020752,-11.41,12.23,-9.96,19.46
9.206223011016846,-12.28,17.9,-16.32,27.15
9.214863300323486,-11.62,13.19,-1.62,17.65
9.236516952514648,3.72,7.63,4.66,9.68
9.237634181976318,14.71,2.95,5.23,15.88
9.245583057403564,15.61,-2.83,1.94,15.98
9.255937099456787,8.5,-5.37,-1.37,10.14
9.264951229095459,2.97,-2.75,0.48,4.07
9.287017107009888,1.24,0.94,2.67,3.09
9.288122177124023,1.45,2.55,1.16,3.15
9.295677185058594,2.44,2.69,-1.27,3.84
9.30629014968872,2.94,1.65,-0.2,3.37
9.314925193786621,4.31,0.62,0.67,4.4
9.33682918548584,5.75,0.1,-0.62,5.78
9.337937116622925,5.62,-0.09,-0.8,5.67
9.345887184143066,3.15,-0.14,0.4,3.17
9.355928182601929,0.71,0.21,0.09,0.74
9.365153074264526,-0.72,0.69,-0.36,1.06
9.386600971221924,-1.92,0.79,0.17,2.08
9.387699127197266,-2.36,0.52,-0.22,2.42
9.395692110061646,-1.64,0.26,-0.48,1.72
9.406196117401123,-0.29,0.11,-0.25,0.39
9.41512417793274,0.72,0.06,0.22,0.75
9.436686992645264,1.04,-0.06,0.09,1.04
9.437796115875244,0.72,-0.13,0.39,0.82
9.445889949798584,0.03,-0.25,0.28,0.37
9.456063270568848,-0.67,-0.24,0.35,0.79
9.465111255645752,-1.07,-0.18,0.39,1.15
9.486583232879639,-1.11,-0.19,0.16,1.13
9.487658023834229,-1.06,-0.3,0.19,1.11
9.495710134506226,-0.74,-0.32,0.19,0.82
9.506134986877441,-0.51,-0.23,0.51,0.75
9.515217065811157,-0.63,-0.15,0.64,0.91
9.536949157714844,-1.0,-0.13,0.55,1.14
9.538040161132812,-1.4,-0.16,0.57,1.52
9.545984268188477,-1.45,-0.1,0.54,1.55
9.556297302246094,-1.15,0.04,0.23,1.17
9.56534719467163,-0.65,0.13,-0.19,0.68
9.5868821144104,-0.28,0.21,-0.49,0.6
9.587975025177002,-0.2,0.35,-0.4,0.56
9.596024990081787,-0.57,0.55,-0.16,0.8
9.606388092041016,-1.32,0.62,-0.14,1.46
9.615476131439209,-2.12,0.69,-0.11,2.23
9.63689112663269,-2.89,0.84,0.02,3.0
9.637976169586182,-3.67,1.13,0.03,3.84
9.646037101745605,-4.16,1.64,0.08,4.47
9.656391143798828,-4.32,2.13,-0.14,4.81
9.665460109710693,-4.21,2.32,-0.58,4.84
9.688022136688232,-3.85,2.02,-0.81,4.42
9.689202070236206,-3.64,1.79,-1.49,4.32
9.696298122406006,-3.74,1.89,-1.92,4.6
9.706648111343384,-3.68,2.3,-2.0,4.77
9.715651988983154,-3.65,3.19,-1.09,4.96
9.738100051879883,-4.45,4.49,0.02,6.32
9.739261150360107,-6.31,5.88,0.85,8.66
9.746333122253418,-8.65,7.53,0.76,11.49
9.756562232971191,-10.63,9.36,-0.15,14.16
9.7656831741333,-12.02,10.77,-0.49,16.14
9.787978172302246,-12.2,11.48,-1.47,16.81
9.78910517692566,-11.41,11.66,-1.31,16.36
9.79654598236084,-10.19,11.91,-0.28,15.67
9.806923151016235,-8.63,12.05,0.87,14.84
9.815745115280151,-7.42,11.47,2.07,13.81
9.836935997009277,-7.47,10.61,2.55,13.22
9.838000297546387,-8.13,9.65,2.77,12.91
9.846341133117676,-7.69,7.78,2.94,11.32
9.856717109680176,-6.91,4.64,3.63,9.08
9.865844249725342,-6.44,1.62,4.08,7.79
9.887386083602905,-6.49,0.61,3.46,7.37
9.888453960418701,-5.94,1.03,2.95,6.71
9.896385192871094,-2.31,1.64,-0.83,2.95
9.906569957733154,-3.37,1.74,-1.17,3.96
9.91581416130066,-7.68,0.36,0.88,7.73
9.937922954559326,-10.56,-1.88,1.44,10.82
9.939032077789307,-10.82,-3.92,1.59,11.61
9.946432113647461,-8.85,-5.14,1.59,10.35
9.95685625076294,-5.83,-5.1,1.07,7.81
9.966007232666016,-3.3,-4.26,0.37,5.4
9.988200187683105,-1.86,-3.49,-0.42,3.97
9.98930025100708,-1.93,-3.19,-0.81,3.81
9.996469020843506,-3.08,-3.5,-0.48,4.68
10.006947040557861,-3.97,-4.18,-0.16,5.76
10.0161452293396,-4.33,-4.66,-0.09,6.36
10.038238048553467,-4.4,-4.73,-0.27,6.46
10.039335250854492,-4.39,-4.32,-0.58,6.18
10.046695232391357,-4.48,-3.58,-0.89,5.8
10.057093143463135,-4.69,-2.66,-1.21,5.52
10.066094160079956,-4.61,-1.73,-1.37,5.11
10.087969303131104,-3.89,-0.78,-1.53,4.25
10.089066982269287,-2.25,0.12,-1.64,2.78
10.096708297729492,0.04,0.88,-2.06,2.24
10.107047080993652,1.79,1.58,-2.28,3.3
10.11628007888794,2.1,2.42,-1.98,3.76
10.13789701461792,1.74,3.79,-1.7,4.5
10.13896918296814,2.02,6.0,-1.24,6.45
10.146773099899292,3.91,8.8,-1.03,9.68
10.157238960266113,7.52,10.79,-1.32,13.21
10.166435241699219,11.51,10.75,-1.88,15.86
10.187900066375732,13.69,9.62,-1.73,16.82
10.188989162445068,13.3,8.47,-0.04,15.76
10.196839094161987,11.67,7.97,1.39,14.2
10.20713210105896,10.45,7.74,-0.55,13.01
10.216191291809082,11.15,7.91,-2.69,13.93
10.237903118133545,13.96,8.02,-2.12,16.23
10.238984107971191,17.83,6.91,-1.05,19.15
10.246871948242188,18.86,3.79,1.05,19.26
10.257265090942383,17.77,1.14,1.35,17.85
10.266345977783203,17.09,0.96,-1.82,17.21
10.287729263305664,18.55,0.8,-2.39,18.72
10.288788080215454,20.5,1.97,-5.11,21.21
10.2969651222229,12.99,3.08,-3.03,13.68
10.307405948638916,-2.67,1.78,4.45,5.48
10.316463947296143,-11.19,7.9,-1.64,13.79
10.33786416053772,-12.16,15.85,-14.17,24.49
10.338935136795044,-11.34,14.45,-9.21,20.54
10.347105979919434,0.76,7.02,1.39,7.19
10.35727596282959,10.71,3.12,3.47,11.68
10.366567134857178,14.82,-0.13,3.05,15.13
10.388216018676758,11.86,-3.18,0.69,12.29
10.389278173446655,5.5,-3.71,-0.98,6.7
10.397040128707886,1.97,-1.72,0.0,2.61
10.407357215881348,0.14,0.99,0.61,1.17
10.416609287261963,0.47,3.04,0.33,3.09
10.438042163848877,1.54,3.14,-0.22,3.5
10.439105987548828,3.37,2.34,-0.89,4.19
10.447662115097046,5.38,1.11,-0.29,5.5
10.457525253295898,5.62,-0.19,0.49,5.64
10.46664810180664,4.63,-0.3,-0.43,4.65
10.48840618133545,2.8,-0.03,-0.1,2.8
10.489485263824463,0.64,0.07,0.7,0.95
10.497290134429932,-0.78,0.44,0.07,0.89
10.507594108581543,-1.37,0.65,-0.1,1.51
10.516792297363281,-1.43,0.52,-0.3,1.55
10.538471221923828,-0.98,0.32,-0.47,1.13
10.539546012878418,-0.13,0.18,-0.46,0.51
10.547237157821655,0.49,0.1,-0.36,0.61
10.557650089263916,0.58,0.08,-0.37,0.69
10.566895008087158,0.38,0.18,-0.36,0.55
10.58844518661499,0.07,0.19,0.03,0.2
10.58953309059143,-0.26,0.09,0.29,0.39
10.59780216217041,-0.49,-0.11,0.39,0.63
10.607591152191162,-0.47,-0.24,0.41,0.66
10.616919040679932,-0.33,-0.34,0.27,0.54
10.63827896118164,-0.25,-0.44,0.43,0.66
10.639337062835693,-0.09,-0.43,0.47,0.64
10.647847175598145,-0.08,-0.36,0.6,0.7
10.657771110534668,-0.19,-0.27,0.62,0.7
10.6668860912323,-0.54,-0.23,0.52,0.78
10.68942403793335,-0.96,-0.09,0.24,0.99
10.69053316116333,-1.16,0.15,0.03,1.17
10.697916984558105,-0.97,0.33,-0.08,1.02
10.707885265350342,-0.65,0.33,0.14,0.74
10.71712613105774,-0.63,0.24,0.4,0.78
10.73951506614685,-0.97,0.19,0.58,1.14
10.740617275238037,-1.15,0.25,0.07,1.17
10.747985124588013,-1.14,0.43,0.04,1.21
10.757967948913574,-1.32,0.63,0.2,1.47
10.7671799659729,-1.82,0.88,0.24,2.03
10.789590120315552,-2.65,1.1,0.27,2.88
10.790685176849365,-3.69,1.09,0.31,3.86
10.798182010650635,-4.45,1.37,0.14,4.65
10.808032035827637,-4.82,1.78,-0.01,5.13
10.817200183868408,-4.96,2.04,-0.64,5.4
10.839269161224365,-4.45,1.92,-1.12,4.97
10.840371131896973,-3.8,1.89,-1.48,4.49
10.84822702407837,-3.69,2.05,-1.98,4.66
10.85806918144226,-3.93,2.51,-1.91,5.03
10.86725902557373,-4.42,3.44,-1.23,5.73
10.889472961425781,-5.54,4.93,-0.03,7.41
10.890550136566162,-7.41,6.92,0.73,10.16
10.898035049438477,-9.51,9.02,0.81,13.13
10.9081871509552,-11.37,10.65,0.42,15.58
10.91758108139038,-12.43,11.3,-0.08,16.79
10.938968181610107,-12.18,11.63,-0.75,16.85
10.940057277679443,-11.64,12.15,-0.38,16.83
10.948498249053955,-10.51,12.86,0.52,16.61
10.95805811882019,-9.22,12.5,1.8,15.63
10.967280149459839,-8.79,11.08,2.52,14.36
10.988906145095825,-9.18,9.79,2.76,13.7
10.989971160888672,-8.96,8.49,3.65,12.87
10.998239994049072,-7.43,5.72,3.69,10.07
11.008234977722168,-6.12,2.19,4.51,7.91
11.017338275909424,-5.41,-0.07,5.23,7.52
11.038986206054688,-5.27,-0.18,4.49,6.92
11.040081024169922,-2.16,0.6,1.28,2.58
11.048441171646118,0.21,1.72,-1.95,2.6
11.05826997756958,-3.23,1.95,-1.09,3.92
11.067365169525146,-8.73,-0.57,1.12,8.81
11.089237213134766,-12.8,-3.65,1.53,13.39
11.090334177017212,-13.57,-5.65,1.88,14.81
11.098275184631348,-11.05,-6.36,2.2,12.93
11.108288288116455,-7.25,-5.44,1.72,9.22
11.117570161819458,-4.07,-4.03,0.67,5.76
11.13965916633606,-2.31,-3.19,-0.16,3.94
11.140753269195557,-2.3,-3.07,0.02,3.83
11.148513078689575,-3.07,-3.38,0.54,4.59
11.15835428237915,-3.55,-3.92,0.54,5.31
11.167652130126953,-3.89,-4.47,0.16,5.92
11.190020084381104,-4.17,-4.67,-0.27,6.26
11.191112041473389,-4.46,-4.31,-0.54,6.22
11.198668003082275,-4.54,-3.39,-0.51,5.68
11.208587169647217,-4.18,-2.15,-0.3,4.71
11.217668056488037,-3.21,-1.01,-0.24,3.37
11.239723205566406,-1.82,-0.11,-0.45,1.87
11.240803241729736,-0.41,0.52,-0.77,1.01
11.248711109161377,0.79,1.14,-0.91,1.65
11.258718967437744,1.64,2.23,-0.82,2.88
11.267813205718994,2.18,3.9,-0.69,4.52
11.290130138397217,2.58,6.0,-0.69,6.56
11.291234970092773,3.48,8.28,-0.74,9.01
11.298863172531128,5.71,10.44,-0.83,11.92
11.308897972106934,9.54,11.33,-1.41,14.87
11.317837238311768,12.84,10.34,-0.78,16.5
11.339851140975952,14.06,9.03,1.72,16.79
11.340933084487915,12.14,9.64,2.88,15.76
11.348772048950195,10.35,7.26,0.38,12.64
11.358839988708496,13.35,7.04,-3.92,15.59
11.367961168289185,16.24,8.19,-3.81,18.58
11.39005708694458,19.16,7.4,1.22,20.57
11.391142129898071,20.76,4.32,3.54,21.49
11.398760080337524,17.61,2.14,-0.87,17.76
11.40884017944336,17.2,2.83,-4.02,17.88
11.41797399520874,18.83,4.02,-5.78,20.1
11.440868139266968,17.71,3.9,-9.42,20.43
11.44201111793518,3.3,5.39,0.88,6.38
11.449109077453613,-8.97,13.14,2.5,16.1
11.459200143814087,-12.84,20.25,-4.11,24.32
11.468076229095459,-8.83,13.32,1.36,16.03
11.490653038024902,4.38,2.98,3.1,6.13
11.491810083389282,12.79,-2.93,0.36,13.12
11.499094009399414,15.33,-6.69,1.04,16.75
11.508955955505371,12.42,-5.92,0.53,13.76
11.518166065216064,8.56,-1.35,-0.35,8.67
11.540283203125,6.05,2.58,-2.28,6.96
11.541375160217285,3.49,5.01,-3.7,7.13
11.548999071121216,1.44,5.09,-2.88,6.02
11.558906078338623,1.0,2.47,-0.26,2.67
11.568104267120361,1.27,-0.38,1.18,1.77
11.589996099472046,1.64,-1.53,-0.3,2.26
11.591078281402588,2.09,-0.84,0.15,2.25
11.599164009094238,1.59,0.05,1.61,2.26
11.609141111373901,0.05,0.13,2.49,2.49
11.618268013000488,-1.55,-0.04,1.81,2.38
11.640454292297363,-2.3,-0.04,0.59,2.37
11.641550064086914,-1.5,0.07,0.04,1.5
11.649325132369995,0.26,0.26,-0.29,0.46
11.659173965454102,1.37,0.18,-0.45,1.45
11.668317079544067,1.06,0.1,-0.42,1.14
11.690861225128174,-0.04,-0.11,-0.34,0.35
11.691973209381104,-0.89,-0.13,-0.13,0.9
11.699387073516846,-1.28,-0.11,0.1,1.28
11.709257125854492,-1.09,-0.21,0.1,1.11
11.718404293060303,-0.7,-0.35,0.09,0.78
11.741482257843018,-0.58,-0.4,0.3,0.76
11.742586135864258,-0.52,-0.39,0.31,0.72
11.749390125274658,-0.4,-0.29,0.27,0.56
11.759191036224365,-0.14,-0.26,0.2,0.35
11.768431186676025,0.27,-0.25,0.08,0.37
11.791108131408691,0.29,-0.22,0.05,0.36
11.792229175567627,0.0,-0.06,0.06,0.08
11.799493074417114,-0.24,0.05,0.09,0.26
11.809401035308838,-0.39,0.1,-0.11,0.41
11.818686962127686,-0.47,0.16,0.12,0.51
11.841028213500977,-0.52,0.12,0.15,0.55
11.842143058776855,-0.43,0.21,0.45,0.65
11.849425077438354,-0.53,0.35,1.04,1.21
11.859363079071045,-0.99,0.56,0.99,1.5
11.868556022644043,-1.87,0.73,0.81,2.16
11.891022205352783,-2.87,0.72,0.59,3.01
11.892114162445068,-3.76,0.76,0.29,3.84
11.8994722366333,-4.39,1.1,-0.05,4.52
11.90945315361023,-4.67,1.6,-0.24,4.94
11.918567180633545,-4.54,2.08,-0.41,5.01
11.940754175186157,-4.22,2.29,-0.7,4.85
11.94182825088501,-4.06,2.16,-0.73,4.65
11.949635982513428,-4.14,2.07,-1.15,4.76
11.959489107131958,-4.38,2.17,-1.45,5.09
11.968657970428467,-4.21,2.58,-0.9,5.01
11.990637302398682,-4.29,3.65,0.09,5.63
11.99169921875,-5.48,4.9,1.03,7.42
11.99963903427124,-7.32,6.13,1.26,9.63
12.00962495803833,-9.26,7.57,1.04,12.0
12.018720149993896,-10.62,9.05,0.48,13.96
12.041044235229492,-11.21,9.98,0.34,15.01
12.042118072509766,-11.56,10.69,0.11,15.74
12.04994511604309,-12.19,11.32,0.7,16.65
12.059765100479126,-12.43,11.7,1.56,17.14
12.068787097930908,-11.67,11.16,2.84,16.39
12.09077501296997,-9.94,10.06,4.34,14.79
12.091837167739868,-7.14,8.99,6.45,13.16
12.09990406036377,-3.45,7.48,6.67,10.59
12.109776020050049,-0.87,4.96,5.31,7.31
12.118860244750977,-0.66,2.4,4.2,4.88
12.141093254089355,-3.05,1.77,4.77,5.93
12.142157077789307,-2.02,2.05,2.34,3.7
12.14983606338501,-0.9,2.38,-0.16,2.54
12.159733295440674,-3.72,2.21,0.85,4.4
12.16891098022461,-7.51,0.19,2.04,7.78
12.191272258758545,-10.43,-2.46,1.92,10.88
12.192345142364502,-11.13,-4.55,1.71,12.14
12.19986629486084,-9.43,-5.42,1.76,11.01
12.209842205047607,-6.84,-5.17,2.13,8.83
12.219003200531006,-4.85,-4.61,2.2,7.04
12.241207122802734,-3.81,-4.2,2.15,6.06
12.242280006408691,-3.72,-3.94,2.09,5.8
12.249965190887451,-4.06,-3.83,1.54,5.79
12.259879112243652,-4.31,-3.97,0.68,5.89
12.269058227539062,-4.49,-4.07,0.21,6.06
12.291160106658936,-4.53,-3.87,0.08,5.95
12.292227268218994,-4.36,-3.33,-0.27,5.49
12.30004596710205,-4.04,-2.63,-0.59,4.85
12.310074090957642,-3.58,-1.82,-0.72,4.08
12.319214105606079,-2.93,-1.09,-0.69,3.2
12.341760158538818,-2.12,-0.53,-0.62,2.27
12.34286117553711,-1.08,-0.11,-0.64,1.26
12.350386142730713,-0.17,0.27,-0.62,0.69
12.36008596420288,0.61,0.76,-0.47,1.08
12.36925220489502,1.45,1.43,-0.51,2.09
12.392673015594482,2.3,2.36,-0.78,3.38
12.393809080123901,3.1,3.53,-1.31,4.87
12.400268077850342,3.95,4.82,-1.92,6.52
12.41024923324585,4.61,5.85,-2.2,7.76
12.419369220733643,5.21,6.47,-1.78,8.49
12.44222116470337,5.95,6.72,-0.93,9.02
12.443319082260132,6.86,6.79,-0.08,9.65
12.450325965881348,7.82,6.86,0.23,10.4
12.46014928817749,8.19,7.1,0.02,10.83
12.46961498260498,7.95,7.5,-0.49,10.94
12.49197506904602,8.6,7.6,-2.63,11.77
12.493074178695679,10.56,8.31,-3.79,13.96
12.5004141330719,14.57,8.55,-3.51,17.25
12.510342121124268,18.69,6.6,-1.67,19.89
12.519508123397827,20.5,2.49,-1.98,20.74
12.542318105697632,18.54,-0.41,-3.61,18.89
12.543428182601929,17.79,-0.03,-3.43,18.11
12.550570964813232,20.21,1.29,-3.54,20.55
12.560289144515991,20.11,2.64,-3.76,20.62
12.569474220275879,13.78,3.17,-7.04,15.79
12.591894149780273,3.13,3.03,0.74,4.41
12.59295129776001,-9.91,1.88,8.66,13.29
12.600558280944824,-12.6,8.52,-10.03,18.21
12.610373973846436,-11.65,16.27,-17.09,26.31
12.619899272918701,-9.43,15.96,-3.73,18.9
12.641343116760254,3.2,10.99,4.61,12.33
12.64240026473999,12.35,5.4,5.05,14.39
12.650532245635986,14.78,-1.46,0.89,14.87
12.660394191741943,9.96,-5.67,-2.62,11.75
12.669603109359741,3.55,-5.0,0.24,6.13
12.691447257995605,0.23,-2.04,2.91,3.56
12.692498207092285,0.47,0.83,1.51,1.78
12.70060396194458,2.13,2.63,-1.24,3.6
12.710544109344482,2.02,3.01,-1.49,3.91
12.719767093658447,2.77,2.08,-0.81,3.55
12.742378234863281,4.9,0.73,-0.87,5.02
12.74343204498291,4.94,-0.27,0.2,4.95
12.750564098358154,2.55,-0.37,0.01,2.57
12.760601043701172,0.52,0.22,0.16,0.58
12.769731044769287,-0.78,0.61,0.3,1.03
12.792497158050537,-1.68,0.52,0.22,1.77
12.79358196258545,-1.62,0.25,0.09,1.64
12.800714015960693,-0.49,0.17,-0.02,0.51
12.81061315536499,0.55,0.18,0.12,0.59
12.819810152053833,1.18,0.1,0.03,1.18
12.841678142547607,1.28,-0.19,0.41,1.35
12.842657089233398,0.85,-0.38,0.41,1.01
12.850629091262817,0.32,-0.25,0.22,0.46
12.86067008972168,-0.21,-0.07,0.04,0.22
12.869848251342773,-0.4,0.02,-0.2,0.44
12.89212417602539,-0.28,0.04,-0.08,0.29
12.89317798614502,-0.31,-0.05,0.1,0.32
12.900715112686157,-0.38,0.01,0.26,0.46
12.910842180252075,-0.64,0.05,0.32,0.71
12.919985294342041,-1.14,0.09,0.84,1.41
12.942437171936035,-1.76,-0.04,1.38,2.23
12.943514108657837,-1.97,-0.09,0.4,2.01
12.950631141662598,-1.43,0.02,-0.33,1.46
12.960904121398926,-0.58,0.08,-0.54,0.79
12.970107078552246,-0.03,0.2,-0.48,0.52
12.99278211593628,-0.13,0.35,-0.41,0.55
12.993875980377197,-0.56,0.44,-0.36,0.79
13.000768184661865,-1.03,0.55,-0.17,1.17
13.010993957519531,-1.72,0.6,0.15,1.82
13.020174980163574,-2.57,0.62,0.39,2.67
13.042646169662476,-3.27,0.69,0.41,3.36
13.043704986572266,-3.68,0.9,0.2,3.79
13.050703048706055,-3.98,1.27,0.08,4.17
13.060947179794312,-4.14,1.75,-0.17,4.49
13.070284128189087,-4.2,2.11,-0.54,4.73
13.092607021331787,-4.06,2.18,-0.87,4.68
13.09366512298584,-4.12,2.05,-1.05,4.72
13.100768089294434,-4.43,2.15,-1.45,5.13
13.111019134521484,-4.7,2.52,-1.81,5.63
13.120337963104248,-4.76,3.33,-1.48,5.99
13.142589092254639,-5.18,4.64,-0.48,6.97
13.143668174743652,-6.55,6.47,0.55,9.22
13.150774955749512,-8.5,8.64,1.19,12.17
13.161049127578735,-10.45,10.54,1.2,14.89
13.170660972595215,-11.77,11.5,0.45,16.46
13.192331075668335,-12.03,11.99,-0.07,16.98
13.193397998809814,-11.56,12.51,0.43,17.03
13.201001167297363,-10.37,12.98,1.05,16.64
13.211169242858887,-9.31,12.04,1.88,15.33
13.220349073410034,-9.16,10.38,2.32,14.03
13.242290019989014,-8.68,9.52,2.15,13.06
13.243366241455078,-7.51,8.18,2.32,11.34
13.250956058502197,-6.62,5.4,2.56,8.91
13.261378288269043,-6.25,1.88,3.35,7.33
13.270479202270508,-6.36,-0.05,3.31,7.16
13.29297399520874,-6.22,0.06,2.95,6.88
13.294044017791748,-2.86,0.76,-0.18,2.96
13.300948143005371,-2.44,1.9,-1.94,3.65
13.311378955841064,-5.98,1.55,-1.12,6.27
13.320503234863281,-9.4,-0.93,0.15,9.44
13.342747211456299,-10.92,-3.42,0.77,11.46
13.343825101852417,-9.9,-4.91,1.04,11.09
13.351004123687744,-7.09,-4.76,0.7,8.56
13.361402034759521,-4.64,-3.82,-0.21,6.01
13.370690107345581,-3.24,-3.0,-1.02,4.53
13.392763137817383,-3.12,-2.75,-1.26,4.34
13.393826961517334,-3.75,-3.07,-1.33,5.02
13.401090145111084,-4.34,-3.6,-1.52,5.84
13.411474227905273,-4.79,-3.95,-1.88,6.48
13.42064118385315,-5.01,-4.04,-2.2,6.8
13.442842960357666,-5.12,-3.82,-2.18,6.74
13.44391918182373,-5.0,-3.21,-1.83,6.21
13.451274156570435,-4.63,-2.29,-1.61,5.41
13.46166706085205,-4.06,-1.47,-1.56,4.59
13.472211122512817,-3.16,-0.82,-1.55,3.61
13.493211269378662,-1.96,-0.2,-1.67,2.58
13.494279146194458,-0.66,0.46,-1.79,1.96
13.501251220703125,0.6,1.27,-1.81,2.29
13.51169729232788,1.78,2.41,-1.62,3.4
13.520779132843018,2.66,3.85,-1.35,4.87
13.543638229370117,3.2,5.48,-1.34,6.48
13.544729232788086,3.94,7.27,-1.54,8.41
13.551351070404053,5.68,9.19,-1.76,10.94
13.562104225158691,8.64,10.57,-2.14,13.81
13.570943117141724,11.66,10.49,-1.8,15.78
13.59374713897705,12.87,9.12,0.45,15.78
13.59483814239502,12.27,7.75,2.22,14.68
13.601455211639404,10.81,7.25,0.71,13.03
13.611958026885986,10.85,7.78,-3.15,13.71
13.62100601196289,13.35,9.04,-3.5,16.49
13.643989086151123,17.53,8.36,-0.22,19.42
13.645094156265259,18.66,4.94,1.72,19.37
13.651518106460571,18.5,1.99,-0.4,18.61
13.661887168884277,18.17,0.76,-2.28,18.32
13.671208143234253,19.34,0.55,-3.61,19.68
13.694509983062744,21.06,0.42,-2.92,21.26
13.695621013641357,17.23,2.64,-7.28,18.89
13.70160722732544,2.34,2.11,1.98,3.72
13.711940288543701,-8.85,5.12,0.67,10.24
13.721210956573486,-10.84,13.25,-15.04,22.78
13.74467420578003,-12.47,15.28,-13.22,23.74
13.745785236358643,-5.72,10.18,-0.04,11.67
13.751546144485474,8.12,7.17,5.17,12.0
13.761932134628296,15.43,4.47,5.1,16.85
13.771214962005615,14.49,-0.48,1.36,14.56
13.79422903060913,6.55,-3.61,-1.69,7.66
13.795313119888306,1.89,-2.58,-0.77,3.28
13.801784038543701,-0.74,-0.19,1.44,1.63
13.812311172485352,0.04,1.41,0.38,1.46
13.821759223937988,2.2,2.04,-1.38,3.3
13.844552040100098,3.17,1.85,-0.34,3.68
13.845647096633911,3.93,0.97,0.28,4.05
13.851813077926636,4.76,0.25,-0.89,4.84
13.862154006958008,4.99,0.25,-0.66,5.03
13.871403217315674,2.85,0.1,1.36,3.15
13.894306182861328,0.16,0.1,0.74,0.76
13.89539909362793,-1.46,0.41,-0.18,1.52
13.90193223953247,-2.04,0.57,-0.17,2.12
13.912257194519043,-1.59,0.35,-0.04,1.62
13.921366214752197,-0.61,0.06,-0.17,0.63
13.944046974182129,0.31,0.08,-0.28,0.42
13.945110082626343,0.88,0.26,-0.08,0.92
13.951799154281616,1.07,0.2,0.31,1.13
13.962171077728271,0.78,-0.14,0.52,0.94
13.971421241760254,0.32,-0.4,0.19,0.54
13.994184017181396,-0.1,-0.39,0.15,0.42
13.995268106460571,-0.34,-0.31,0.1,0.47
14.001974105834961,-0.46,-0.12,-0.11,0.48
14.012377262115479,-0.58,-0.06,-0.07,0.58
14.02149510383606,-0.37,-0.07,0.0,0.37
14.043679237365723,-0.02,-0.08,0.24,0.25
14.044744968414307,-0.1,-0.14,0.59,0.61
14.05221700668335,-0.65,-0.22,0.86,1.1
14.06230115890503,-1.15,-0.22,0.69,1.35
14.071554183959961,-1.16,-0.25,0.13,1.19
14.09457516670227,-0.52,-0.26,-0.15,0.6
14.095664024353027,0.19,-0.21,-0.26,0.38
14.102249145507812,0.45,-0.1,-0.09,0.46
14.11251711845398,0.12,-0.01,0.16,0.2
14.1217041015625,-0.73,0.15,0.34,0.81
14.14404010772705,-1.74,0.32,0.13,1.77
14.145102977752686,-2.3,0.52,-0.07,2.35
14.152274131774902,-2.39,0.64,-0.24,2.48
14.162522077560425,-2.25,0.7,-0.32,2.37
14.171724081039429,-2.22,0.77,-0.34,2.37
14.193835258483887,-2.46,0.95,-0.26,2.64
14.194899082183838,-2.9,1.32,0.0,3.18
14.202351093292236,-3.43,1.7,-0.21,3.83
14.212528228759766,-3.72,1.86,-0.59,4.2
14.221771240234375,-3.82,1.81,-0.72,4.28
14.244050979614258,-3.93,1.75,-1.16,4.45
14.245110988616943,-4.0,1.79,-1.46,4.61
14.252493143081665,-3.83,2.14,-1.25,4.56
14.262830257415771,-3.88,3.01,-0.09,4.91
14.27177906036377,-4.88,4.35,1.15,6.63
14.294276237487793,-6.84,5.44,1.69,8.9
14.295337200164795,-8.92,6.16,1.47,10.93
14.302573204040527,-10.21,7.36,0.87,12.61
14.312888145446777,-10.27,9.0,0.36,13.66
14.322035074234009,-9.5,10.28,-0.26,13.99
14.345262050628662,-9.08,10.98,-0.41,14.25
14.346374988555908,-9.39,11.72,-0.11,15.01
14.352743148803711,-9.61,12.72,0.66,15.95
14.362957954406738,-9.79,12.61,1.57,16.04
14.372070074081421,-10.37,11.3,2.29,15.5
14.394952297210693,-10.49,9.84,2.68,14.63
14.396018028259277,-9.37,8.35,3.13,12.93
14.402612209320068,-7.56,5.74,2.97,9.94
14.41281509399414,-6.64,2.24,3.17,7.69
14.421988010406494,-6.12,-0.24,4.41,7.54
14.444826126098633,-4.66,-0.89,3.38,5.82
14.445903301239014,-0.19,0.15,1.18,1.2
14.45276403427124,3.28,2.27,-2.35,4.62
14.463099956512451,-0.34,2.2,-2.07,3.03
14.472154140472412,-6.75,-0.8,1.64,6.99
14.495045185089111,-10.53,-4.14,2.98,11.7
14.496119976043701,-10.19,-6.13,2.47,12.14
14.502734184265137,-7.6,-6.38,1.75,10.07
14.513220071792603,-5.16,-5.4,1.09,7.54
14.522264003753662,-3.81,-4.42,0.61,5.86
14.545115947723389,-3.3,-3.97,0.48,5.18
14.546179294586182,-3.17,-4.08,0.47,5.18
14.552844047546387,-3.3,-4.46,0.19,5.55
14.563053131103516,-3.64,-4.68,-0.4,5.94
14.572350978851318,-3.95,-4.51,-1.03,6.08
14.595060110092163,-4.22,-4.08,-1.35,6.02
14.59612226486206,-4.39,-3.47,-1.26,5.73
14.602827072143555,-4.22,-2.63,-0.94,5.06
14.613128185272217,-3.64,-1.84,-0.51,4.11
14.622247219085693,-2.79,-1.21,-0.25,3.05
14.644731998443604,-1.8,-0.74,-0.18,1.95
14.645798206329346,-0.64,-0.28,-0.04,0.69
14.65301513671875,0.67,0.32,-0.05,0.74
14.663287162780762,1.86,1.08,-0.26,2.16
14.672406196594238,2.56,2.0,-0.39,3.27
14.695258140563965,2.85,3.07,-0.56,4.22
14.696327209472656,3.17,4.26,-0.58,5.34
14.70294713973999,4.01,5.63,-0.38,6.92
14.71329402923584,5.4,7.11,0.15,8.92
14.72244119644165,7.07,8.55,1.08,11.14
14.745162963867188,8.74,9.17,1.37,12.74
14.746222019195557,9.44,8.41,1.76,12.76
14.753112077713013,8.59,7.92,2.96,12.05
14.763414144515991,7.42,9.1,3.7,12.31
14.772602081298828,7.05,8.68,0.84,11.21
14.796256065368652,6.24,6.78,-1.01,9.26
14.797343254089355,6.82,7.14,-3.18,10.37
14.803076267242432,12.76,6.63,-2.32,14.56
14.813603162765503,17.96,3.7,0.9,18.35
14.822671175003052,17.52,-0.21,-3.53,17.87
14.84578013420105,19.24,-2.01,-5.84,20.2
14.846867084503174,20.67,-1.01,-4.81,21.24
14.853244066238403,21.44,0.93,-5.8,22.23
14.86358118057251,17.12,1.79,-12.25,21.12
14.872668266296387,4.99,2.21,-7.43,9.21
14.895812034606934,-6.2,4.71,-3.67,8.6
14.896950244903564,-10.81,13.58,-13.0,21.68
14.903661251068115,-13.95,17.59,-9.66,24.44
14.913548946380615,-14.37,12.69,0.85,19.18
14.922749996185303,0.26,6.7,3.03,7.35
14.945592164993286,7.73,1.58,6.17,10.01
14.946666240692139,7.66,-4.72,5.01,10.29
14.953315258026123,5.83,-7.75,2.38,9.98
14.963661193847656,4.82,-5.11,1.38,7.15
14.972759246826172,5.69,-0.46,-2.73,6.32
14.99544620513916,5.83,2.39,-4.19,7.56
14.99651312828064,4.87,4.26,-3.75,7.47
15.003384113311768,4.64,4.7,-2.3,6.99
15.013541221618652,4.83,2.39,1.26,5.53
15.022891998291016,4.05,-0.54,0.91,4.18
15.046014070510864,2.5,-1.52,-1.48,3.27
15.047100067138672,2.17,-0.6,-1.81,2.88
15.053407192230225,2.4,0.74,-0.34,2.53
15.063683032989502,2.1,1.09,0.13,2.36
15.072964191436768,1.05,0.65,0.47,1.32
15.09581708908081,0.01,0.03,0.9,0.9
15.096886157989502,-0.3,-0.46,0.67,0.86
15.103662967681885,0.63,-0.51,-0.05,0.81
15.113957166671753,1.59,-0.15,-0.48,1.66
15.123027086257935,1.68,0.06,-0.47,1.74
15.145888090133667,1.48,0.07,-0.1,1.48
15.146958112716675,0.77,-0.01,0.47,0.9
15.153576135635376,-0.14,-0.15,0.4,0.44
15.163836002349854,-0.67,-0.21,-0.02,0.7
15.173107147216797,-0.82,-0.14,-0.19,0.85
15.195961952209473,-0.98,-0.09,0.3,1.02
15.197031021118164,-1.02,-0.25,0.81,1.32
15.20372200012207,-1.05,-0.57,0.95,1.52
15.213853120803833,-1.32,-0.85,0.96,1.84
15.223155975341797,-1.8,-0.8,0.75,2.1
15.246616125106812,-2.49,-0.38,0.51,2.56
15.247710227966309,-3.39,0.32,0.45,3.43
15.253750085830688,-4.47,0.9,0.23,4.56
15.2641761302948,-5.56,1.15,0.21,5.68
15.273282051086426,-6.05,1.07,0.37,6.15
15.296797275543213,-5.66,0.75,0.67,5.74
15.297883987426758,-4.22,0.26,0.28,4.23
15.303823947906494,-2.22,-0.1,0.01,2.22
15.314157962799072,-0.64,-0.17,-0.21,0.69
15.323325157165527,0.15,0.27,-0.77,0.82
15.347123146057129,0.34,0.13,-0.03,0.36
15.348226070404053,0.16,0.48,1.01,1.12
15.35390329360962,-0.65,0.39,2.22,2.34
15.36417818069458,-1.89,-0.14,3.57,4.04
15.373466968536377,-2.82,-0.99,4.47,5.37
15.396952152252197,-2.91,-1.15,4.28,5.3
15.398061275482178,-2.92,-0.57,4.21,5.15
15.40389108657837,-2.93,0.12,3.47,4.54
15.414303302764893,-2.8,0.78,2.48,3.82
15.42345905303955,-2.97,1.73,1.61,3.79
15.446975231170654,-3.9,2.21,1.64,4.77
15.448057174682617,-3.83,1.5,0.85,4.2
15.454046249389648,-2.6,0.83,0.01,2.72
15.464306116104126,-1.72,0.29,-0.44,1.79
15.47356915473938,-1.44,0.08,-0.76,1.63
15.497023105621338,-1.22,0.97,-1.33,2.04
15.498131275177002,-1.25,2.09,-1.01,2.63
15.504127979278564,-1.51,2.77,-0.11,3.15
15.514398097991943,-1.01,2.36,0.75,2.67
15.523591995239258,0.64,1.31,1.44,2.04
15.54690408706665,2.43,0.44,1.91,3.12
15.547985076904297,3.05,0.04,2.34,3.84
15.554241180419922,1.92,0.34,1.41,2.4
15.564536094665527,0.32,0.72,0.22,0.81
15.573691129684448,1.1,1.63,-0.96,2.18
15.59688425064087,5.57,2.33,-0.76,6.08
15.59794807434082,8.96,0.79,2.28,9.27
15.60424017906189,7.9,-0.16,2.27,8.22
15.614466190338135,3.63,-0.03,1.24,3.83
15.62371301651001,0.51,0.1,1.4,1.49
15.646855115890503,-1.02,-0.37,1.23,1.64
15.647928237915039,-1.64,-0.96,0.07,1.9
15.654227256774902,-2.13,-1.33,-0.94,2.68
15.664482116699219,-2.49,-1.68,-1.78,3.49
15.673732280731201,-2.15,-1.81,-2.72,3.91
15.697051048278809,-1.33,-1.79,-3.62,4.25
15.698146104812622,-0.43,-1.63,-4.59,4.88
15.704301118850708,0.34,-1.45,-5.56,5.75
15.714630126953125,1.17,-1.52,-6.09,6.38
15.72380018234253,1.97,-1.4,-6.34,6.78
15.746761083602905,2.03,-0.79,-6.47,6.82
15.747817039489746,1.13,-0.36,-6.45,6.55
15.754399299621582,0.03,-0.4,-6.06,6.07
15.764508247375488,-0.72,-0.36,-5.49,5.54
15.773888111114502,-1.22,-0.05,-4.91,5.05
15.797848224639893,-1.78,0.18,-4.14,4.51
15.79892110824585,-2.38,0.17,-3.3,4.07
15.804429054260254,-2.76,0.14,-2.78,3.91
15.814897060394287,-3.23,0.28,-2.68,4.2
15.823958158493042,-3.94,0.44,-2.7,4.79
15.847433090209961,-4.49,0.52,-2.54,5.18
15.848497152328491,-4.82,0.73,-2.35,5.41
15.854677200317383,-4.98,0.92,-2.22,5.52
15.864898204803467,-4.98,1.01,-2.09,5.49
15.87413501739502,-4.78,0.98,-1.98,5.26
15.89765214920044,-4.55,0.84,-1.81,4.96
15.898727178573608,-4.39,0.76,-1.68,4.76
15.904640197753906,-4.47,1.01,-2.12,5.04
15.914956092834473,-5.01,1.35,-2.47,5.74
15.92411208152771,-5.28,1.32,-2.41,5.95
15.947134971618652,-4.83,1.22,-2.26,5.47
15.948200225830078,-4.46,1.34,-2.34,5.21
15.954636096954346,-4.56,1.42,-2.34,5.31
15.96504807472229,-4.78,1.31,-2.12,5.39
15.974224090576172,-4.9,1.21,-1.79,5.35
15.997445106506348,-5.03,1.19,-1.49,5.37
15.998507976531982,-5.18,1.16,-1.21,5.44
16.00466012954712,-5.43,1.09,-1.01,5.62
16.015302181243896,-5.7,1.0,-0.81,5.84
16.024153232574463,-5.87,1.0,-0.6,5.98
16.047422170639038,-5.82,1.03,-0.51,5.93
16.048484086990356,-5.65,0.89,-0.52,5.74
16.05478525161743,-5.7,0.48,-0.5,5.74
16.064990997314453,-5.88,0.03,-0.47,5.89
16.07428503036499,-5.99,-0.2,-0.5,6.01
16.097122192382812,-5.68,-0.15,-0.3,5.68
16.098191261291504,-4.78,0.22,-0.34,4.79
16.10480499267578,-3.79,0.78,-0.9,3.97
16.115272998809814,-3.5,0.97,-1.5,3.92
16.12439727783203,-3.79,0.58,-1.66,4.17
16.14763307571411,-3.89,0.24,-1.57,4.2
16.148620128631592,-3.37,0.36,-1.57,3.73
16.15515899658203,-2.33,0.85,-1.8,3.06
16.165281295776367,-1.27,1.32,-1.79,2.56
16.174573183059692,-0.52,1.38,-1.51,2.11
16.197530269622803,0.24,1.08,-1.14,1.58
16.19859218597412,1.23,0.68,-0.72,1.57
16.205018043518066,2.31,0.4,-0.27,2.35
16.215257167816162,3.4,0.53,0.09,3.44
16.22459125518799,3.94,0.77,0.27,4.02
16.24771213531494,3.39,0.5,0.25,3.43
16.24877405166626,2.44,0.12,0.34,2.46
16.25510811805725,2.21,0.04,0.29,2.22
16.265271186828613,3.0,0.01,0.12,3.0
16.274558067321777,4.16,-0.05,0.32,4.17
16.297461986541748,5.24,-0.14,0.56,5.27
16.29853630065918,6.01,-0.25,0.66,6.05
16.305115222930908,6.49,-0.31,0.45,6.51
16.31531524658203,7.19,-0.49,-0.04,7.2
16.3246591091156,7.56,-0.88,-0.54,7.63
16.347530126571655,7.13,-1.4,-0.62,7.29
16.348631143569946,6.67,-1.13,-0.71,6.8
16.355337142944336,6.47,-1.85,-1.78,6.96
16.365527153015137,8.23,-2.01,-5.15,9.91
16.374814987182617,8.57,0.1,-9.73,12.96
16.397645950317383,3.56,1.55,-9.63,10.38
16.398701190948486,-4.64,3.08,-2.65,6.16
16.40541124343872,-13.35,5.19,2.17,14.48
16.415647983551025,-14.02,7.01,1.38,15.73
16.424848079681396,-4.82,5.06,1.32,7.11
16.447431087493896,4.37,2.77,1.88,5.5
16.448484182357788,6.98,0.39,1.47,7.14
16.45554208755493,4.2,-2.4,1.75,5.14
16.46555519104004,0.92,-2.45,1.35,2.94
16.474785089492798,-0.01,-0.36,0.28,0.45
16.497765064239502,1.17,1.43,-0.92,2.06
16.49883008003235,2.54,2.29,-1.61,3.77
16.50537109375,3.37,2.41,-1.75,4.49
16.515676975250244,3.68,1.73,-1.14,4.22
16.524903297424316,2.5,0.24,0.5,2.56
16.547529220581055,1.33,-0.43,0.62,1.52
16.548588275909424,0.93,-0.09,0.14,0.94
16.55560302734375,0.31,0.3,0.39,0.58
16.566071033477783,-0.03,0.47,0.73,0.86
16.57509422302246,0.8,0.55,0.81,1.26
16.597708225250244,1.62,0.18,1.22,2.03
16.598761081695557,1.39,-0.26,1.33,1.94
16.60580611228943,0.92,-0.28,0.89,1.31
16.61577320098877,0.47,-0.08,0.62,0.78
16.625161170959473,0.3,0.14,0.46,0.56
16.64740228652954,0.56,0.29,0.11,0.64
16.64844799041748,0.57,0.16,-0.1,0.6
16.65573024749756,-0.1,-0.08,0.01,0.12
16.665964126586914,-0.83,-0.11,-0.06,0.83
16.675164222717285,-1.15,-0.01,-0.05,1.15
16.697543144226074,-1.02,0.05,0.0,1.02
16.698596000671387,-0.85,-0.13,0.17,0.87
16.70573329925537,-1.01,-0.39,0.45,1.17
16.715999126434326,-1.34,-0.47,0.56,1.52
16.725107192993164,-1.54,-0.23,0.24,1.57
16.747708082199097,-1.48,0.06,-0.23,1.49
16.748769283294678,-1.51,0.03,-0.06,1.51
16.755834102630615,-1.3,-0.01,0.15,1.3
16.765960216522217,-0.82,0.04,-0.03,0.82
16.775251150131226,-0.5,-0.01,0.03,0.5
16.797649145126343,-0.41,-0.04,0.18,0.44
16.798717975616455,-0.78,-0.1,0.35,0.86
16.80586004257202,-1.16,-0.05,0.2,1.17
16.816303253173828,-1.17,0.15,0.29,1.21
16.82525396347046,-1.05,0.21,0.48,1.17
16.848236083984375,-0.85,0.19,0.39,0.95
16.84929323196411,-0.74,0.12,0.16,0.76
16.85610818862915,-0.79,0.05,0.24,0.82
16.8660991191864,-0.81,0.12,0.29,0.86
16.875532150268555,-0.85,0.17,0.35,0.93
16.897871017456055,-1.03,0.16,0.52,1.16
16.898924112319946,-1.33,0.13,0.79,1.55
16.906023025512695,-1.7,0.14,0.52,1.78
16.916205167770386,-1.96,0.16,0.51,2.03
16.92534303665161,-2.2,0.26,0.62,2.3
16.9479022026062,-2.57,0.43,0.68,2.69
16.948965072631836,-2.87,0.62,0.67,3.01
16.956101179122925,-2.92,0.69,1.2,3.23
16.966199159622192,-2.85,0.9,0.57,3.04
16.975563049316406,-2.93,1.22,-1.06,3.34
16.99788522720337,-2.67,1.49,-1.23,3.29
16.99895429611206,-2.34,1.84,-0.97,3.13
17.006093978881836,-2.42,2.2,-0.87,3.38
17.016462087631226,-2.7,2.53,-0.57,3.74
17.02551007270813,-3.27,2.8,-0.17,4.3
17.04767107963562,-4.1,3.14,-0.21,5.16
17.048736095428467,-4.82,3.71,-0.42,6.09
17.056228160858154,-5.28,4.58,-0.56,7.01
17.06640911102295,-5.38,5.61,-0.45,7.78
17.075724124908447,-5.46,6.57,-0.25,8.54
17.098042964935303,-6.25,7.23,-0.12,9.55
17.099101066589355,-7.53,7.81,-0.3,10.85
17.106301069259644,-8.5,8.55,-0.38,12.06
17.116587162017822,-9.0,8.99,-0.36,12.72
17.125720977783203,-9.39,8.88,-0.18,12.92
17.14790105819702,-9.14,8.73,-0.26,12.64
17.14895725250244,-8.71,8.5,0.43,12.17
17.156286239624023,-9.11,7.81,0.56,12.01
17.166540145874023,-9.3,7.17,0.49,11.75
17.175708293914795,-8.52,6.88,0.89,10.98
17.19806408882141,-6.9,6.23,1.33,9.39
17.199117183685303,-5.42,4.44,1.59,7.18
17.20625114440918,-5.47,1.86,2.2,6.18
17.216570138931274,-6.07,-0.41,2.62,6.62
17.225698947906494,-6.14,-1.37,2.5,6.76
17.248293161392212,-3.93,-0.88,0.84,4.11
17.249366283416748,-2.01,1.38,-2.36,3.39
17.25639820098877,-3.87,2.34,-2.57,5.2
17.26669716835022,-7.09,0.72,-0.64,7.15
17.276010036468506,-9.48,-2.0,-0.12,9.68
17.297638177871704,-9.41,-3.81,-0.27,10.15
17.298619270324707,-7.64,-4.13,-0.27,8.68
17.306384086608887,-5.93,-3.48,-0.22,6.87
17.316823959350586,-5.11,-2.87,0.0,5.86
17.326072216033936,-4.84,-2.82,0.42,5.61
17.34785223007202,-4.82,-3.21,0.73,5.83
17.348924160003662,-5.06,-3.61,0.5,6.23
17.35678005218506,-5.55,-3.78,-0.13,6.71
17.36720323562622,-6.1,-3.69,-0.67,7.16
17.376097202301025,-6.44,-3.26,-0.85,7.26
17.397836208343506,-6.12,-2.62,-0.47,6.67
17.398895263671875,-5.1,-2.02,0.03,5.48
17.4066960811615,-3.85,-1.49,0.24,4.13
17.41735315322876,-2.91,-0.97,0.27,3.07
17.426164150238037,-2.55,-0.39,0.33,2.6
17.447865962982178,-2.54,0.39,0.45,2.6
17.448939085006714,-2.33,1.37,0.35,2.72
17.456777095794678,-1.64,2.38,-0.05,2.89
17.467512130737305,-0.41,3.34,-0.54,3.4
17.476322174072266,0.99,4.42,-0.73,4.58
17.498125076293945,2.28,5.7,-0.8,6.19
17.49918818473816,3.44,6.97,-0.84,7.81
17.50694513320923,4.49,7.96,-1.03,9.19
17.51758909225464,5.56,8.48,-1.01,10.19
17.526215076446533,6.65,8.48,-0.66,10.79
17.54841113090515,7.65,8.02,-0.25,11.08
17.549472093582153,8.5,7.57,0.53,11.39
17.556790113449097,9.66,7.36,0.82,12.17
17.567481994628906,11.01,6.85,-0.63,12.98
17.576296091079712,11.68,6.43,-2.75,13.61
17.59840202331543,12.74,6.88,-3.22,14.83
17.59945821762085,15.47,6.84,-1.79,17.0
17.607032299041748,17.81,4.66,0.66,18.42
17.61771297454834,17.38,1.63,0.06,17.45
17.62653398513794,16.34,1.29,-1.68,16.47
17.648330211639404,17.24,1.94,-2.02,17.46
17.64939022064209,18.28,1.3,-2.76,18.53
17.657022953033447,18.63,2.97,-4.67,19.43
17.667706966400146,8.66,3.11,-4.85,10.4
17.67646026611328,-4.5,3.03,0.97,5.51
17.69837212562561,-12.51,10.24,-4.71,16.83
17.699438095092773,-14.62,14.88,-11.46,23.8
17.707025051116943,-10.19,10.37,-3.96,15.06
17.717617988586426,2.43,5.11,3.53,6.66
17.726433277130127,11.69,1.99,5.14,12.92
17.7479829788208,16.34,-1.07,2.99,16.64
17.749044179916382,11.81,-3.91,0.09,12.44
17.75701904296875,4.4,-2.86,0.58,5.27
17.767642974853516,1.54,0.3,2.17,2.67
17.776446104049683,0.97,2.7,0.57,2.92
17.798575162887573,0.98,3.01,-2.1,3.79
17.799641132354736,0.39,2.02,-2.03,2.89
17.807106018066406,1.73,0.83,-0.06,1.91
17.817734241485596,3.65,-0.24,1.02,3.79
17.82656717300415,4.28,-0.59,-0.38,4.33
17.848730087280273,3.75,0.12,-0.86,3.84
17.84978199005127,2.07,0.61,0.84,2.31
17.857160091400146,0.15,0.47,1.15,1.25
17.867753982543945,-1.41,0.1,0.45,1.48
17.876622200012207,-2.12,0.0,0.32,2.14
17.897979259490967,-1.74,0.05,0.41,1.78
17.89904022216797,-0.85,0.08,0.11,0.86
17.907241106033325,0.03,0.12,-0.27,0.29
17.917818069458008,0.62,0.16,-0.1,0.64
17.926701068878174,0.59,0.06,0.12,0.6
17.948756217956543,0.12,-0.05,0.2,0.23
17.949820041656494,-0.32,-0.2,0.42,0.56
17.957597255706787,-0.67,-0.28,0.49,0.87
17.96827507019043,-0.99,-0.36,0.55,1.18
17.976978302001953,-1.08,-0.43,0.64,1.32
17.998557090759277,-0.94,-0.33,0.74,1.24
17.99961519241333,-0.9,-0.27,0.69,1.16
18.00742816925049,-0.88,-0.27,0.71,1.16
18.018208980560303,-1.02,-0.23,0.69,1.25
18.026862144470215,-1.21,-0.07,0.33,1.25
18.048174142837524,-1.17,0.17,0.08,1.18
18.04922318458557,-0.85,0.3,0.13,0.91
18.05753517150879,-0.68,0.21,0.38,0.8
18.068312168121338,-0.93,0.04,0.68,1.15
18.077033042907715,-1.32,-0.01,0.67,1.48
18.09840416908264,-1.73,0.25,1.15,2.09
18.099464178085327,-2.34,0.49,1.36,2.75
18.107694149017334,-2.78,0.53,0.91,2.97
18.11843204498291,-2.88,0.61,0.24,2.95
18.127113103866577,-2.92,0.9,0.3,3.07
18.1485652923584,-3.22,1.37,0.19,3.5
18.149636268615723,-3.78,1.73,-0.08,4.15
18.157766103744507,-4.19,2.04,-0.43,4.68
18.16850519180298,-4.23,2.27,-0.81,4.86
18.177285194396973,-4.02,2.22,-0.98,4.69
18.19844913482666,-3.77,2.09,-1.47,4.55
18.199509143829346,-3.85,2.04,-1.86,4.73
18.20778799057007,-3.87,2.53,-1.6,4.89
18.218489170074463,-4.14,3.8,-0.24,5.62
18.227233171463013,-5.67,5.26,1.54,7.88
18.248430252075195,-8.33,6.49,2.63,10.88
18.249484062194824,-11.34,7.63,2.6,13.91
18.25797128677368,-13.35,9.29,2.1,16.39
18.268548011779785,-13.3,10.67,1.34,17.1
18.277502059936523,-12.06,10.99,0.94,16.34
18.298491954803467,-11.21,10.79,1.41,15.62
18.299571990966797,-10.32,11.74,1.94,15.75
18.308166027069092,-9.41,12.49,2.99,15.92
18.318775177001953,-9.02,11.38,3.53,14.94
18.327458143234253,-8.93,9.93,4.15,13.98
18.348533153533936,-7.7,8.14,5.12,12.31
18.349589109420776,-5.4,5.72,3.98,8.81
18.3580801486969,-4.58,2.74,3.18,6.21
18.36870002746582,-5.65,0.94,3.17,6.54
18.37748908996582,-4.94,0.63,2.51,5.57
18.398598194122314,-1.59,1.7,-0.38,2.35
18.399662971496582,-1.66,2.85,-1.38,3.57
18.408059120178223,-5.94,1.29,1.44,6.24
18.418869972229004,-9.7,-1.95,3.2,10.39
18.42749810218811,-10.42,-4.71,2.82,11.77
18.44845414161682,-8.57,-5.57,1.94,10.4
18.44951820373535,-6.36,-4.86,1.09,8.07
18.458306074142456,-5.18,-3.8,0.55,6.44
18.468887090682983,-5.12,-3.4,0.63,6.17
18.477620124816895,-5.33,-3.59,0.89,6.48
18.498211145401,-5.14,-3.82,0.72,6.44
18.499272108078003,-4.68,-3.84,0.17,6.05
18.508315086364746,-4.31,-3.55,-0.45,5.6
18.518874168395996,-4.3,-3.05,-1.15,5.39
18.527668952941895,-4.65,-2.67,-1.59,5.59
18.548476219177246,-5.05,-2.43,-1.35,5.76
18.54954195022583,-5.11,-2.09,-0.9,5.59
18.558343172073364,-4.78,-1.55,-0.61,5.06
18.569132089614868,-4.0,-0.66,-0.49,4.08
18.577832221984863,-2.67,0.27,-0.62,2.75
18.598950147628784,-1.03,0.89,-0.85,1.6
18.600018978118896,0.65,1.28,-1.25,1.9
18.6084041595459,2.13,1.89,-1.6,3.26
18.619190216064453,3.1,3.0,-1.61,4.6
18.627846240997314,3.49,4.51,-1.57,5.91
18.648591995239258,3.7,6.17,-1.58,7.36
18.649660110473633,4.71,7.46,-1.44,8.93
18.65855598449707,7.2,7.99,-1.48,10.85
18.66908025741577,10.05,8.18,-1.19,13.01
18.677913188934326,11.58,8.28,0.41,14.24
18.698512077331543,11.43,8.04,2.09,14.12
18.699570178985596,9.69,7.76,1.55,12.51
18.708559036254883,8.67,7.72,-1.08,11.65
18.71914529800415,10.22,8.4,-2.59,13.48
18.727914094924927,13.0,8.99,-0.98,15.83
18.748335123062134,16.49,7.55,1.23,18.17
18.749392986297607,17.43,3.73,1.3,17.87
18.758536100387573,16.27,0.69,-1.16,16.32
18.76931619644165,17.18,0.08,-2.54,17.36
18.7780921459198,19.01,0.14,-2.4,19.16
18.798516273498535,21.63,2.03,-2.41,21.85
18.79957914352417,17.54,3.29,-6.03,18.83
18.808680057525635,4.61,3.82,-2.77,6.59
18.819146156311035,-7.9,3.91,3.93,9.65
18.828089237213135,-12.39,9.65,-10.38,18.82
18.84894108772278,-13.75,14.83,-13.34,24.22
18.85001516342163,-7.22,11.17,-1.91,13.43
18.858745098114014,8.02,7.33,2.63,11.17
18.869487285614014,14.59,5.09,2.94,15.72
18.8782000541687,14.07,0.93,0.93,14.13
18.898872137069702,7.41,-2.45,-0.74,7.83
18.89993906021118,2.87,-2.44,0.0,3.76
18.908786296844482,0.01,-0.81,1.22,1.46
18.91960096359253,-0.48,0.59,2.03,2.16
18.928200244903564,2.1,1.46,1.18,2.81
18.948843955993652,3.94,1.67,0.13,4.28
18.94990611076355,4.17,0.97,0.55,4.31
18.95885705947876,3.96,0.32,0.34,3.98
18.96950626373291,3.27,-0.08,-0.1,3.27
18.978297233581543,1.39,-0.01,0.09,1.39
18.998703002929688,-0.3,0.43,0.14,0.54
18.999767303466797,-1.61,0.65,-0.39,1.77
19.008989095687866,-2.28,0.73,-0.55,2.45
19.019604206085205,-2.14,0.58,-0.12,2.22
19.02834916114807,-1.64,0.24,-0.01,1.65
19.048705101013184,-1.0,0.13,-0.19,1.02
19.04975914955139,-0.32,0.26,-0.25,0.48
19.058935165405273,0.33,0.18,0.07,0.38
19.06958818435669,0.58,-0.19,0.5,0.78
19.078420162200928,0.54,-0.42,0.41,0.79
19.098762035369873,0.19,-0.33,0.57,0.68
19.099826097488403,-0.43,-0.22,0.6,0.77
19.10904312133789,-0.75,-0.12,0.28,0.8
19.119646072387695,-0.72,-0.11,0.14,0.74
19.12846326828003,-0.61,-0.21,0.03,0.64
19.148585081100464,-0.48,-0.23,0.43,0.68
19.14965295791626,-0.73,-0.32,0.84,1.15
19.159274101257324,-1.11,-0.21,0.46,1.21
19.169628143310547,-1.41,0.04,0.49,1.49
19.17860507965088,-1.47,0.15,0.64,1.61
19.198732137680054,-1.47,0.08,1.15,1.86
19.199795246124268,-1.4,0.07,1.04,1.74
19.20919418334961,-1.17,0.17,0.56,1.3
19.219755172729492,-0.94,0.25,0.01,0.97
19.22861099243164,-0.94,0.32,-0.08,0.99
19.248857975006104,-1.33,0.36,0.04,1.37
19.24992609024048,-2.02,0.55,0.22,2.1
19.25927209854126,-2.84,0.91,0.26,2.99
19.269683122634888,-3.57,1.22,0.18,3.77
19.278706073760986,-4.17,1.54,0.0,4.44
19.298668146133423,-4.69,1.9,-0.14,5.06
19.299721240997314,-4.79,2.15,-0.66,5.29
19.309319972991943,-4.52,2.04,-1.04,5.06
19.319708108901978,-4.07,1.74,-1.3,4.61
19.328798294067383,-3.75,1.69,-1.71,4.45
19.34898328781128,-3.76,1.99,-1.89,4.65
19.350053071975708,-3.92,2.88,-1.41,5.06
19.359358072280884,-4.75,4.18,-0.23,6.33
19.3698992729187,-6.67,5.71,0.52,8.79
19.37888216972351,-9.05,7.69,0.9,11.91
19.3989200592041,-11.3,10.03,0.52,15.11
19.399993181228638,-12.96,11.83,-0.47,17.55
19.4097101688385,-13.45,12.64,-1.19,18.49
19.419713020324707,-12.89,12.55,-0.94,18.01
19.429141998291016,-11.56,12.41,0.87,16.98
19.448800086975098,-9.48,12.18,2.55,15.64
19.449864149093628,-8.08,11.08,3.55,14.16
19.459546089172363,-7.66,9.66,3.72,12.87
19.469869136810303,-7.35,8.93,3.63,12.12
19.4790461063385,-6.7,7.3,3.61,10.54
19.499000072479248,-6.57,4.47,3.79,8.8
19.500061988830566,-6.96,1.48,3.84,8.08
19.509602069854736,-7.47,0.17,3.6,8.29
19.519824028015137,-5.58,0.69,2.65,6.21
19.528967142105103,-1.96,1.57,0.28,2.52
19.54898500442505,-2.92,1.94,-0.36,3.52
19.55005717277527,-7.25,0.0,0.83,7.29
19.559683084487915,-10.88,-3.05,1.55,11.4
19.56985116004944,-12.08,-5.55,1.8,13.41
19.57916808128357,-10.46,-6.26,1.84,12.32
19.5990309715271,-7.86,-5.41,1.56,9.66
19.600097179412842,-5.71,-4.23,1.11,7.19
19.609844207763672,-4.28,-3.42,0.62,5.51
19.619822025299072,-3.63,-3.16,0.35,4.82
19.62928819656372,-3.56,-3.17,-0.08,4.76
19.64903712272644,-3.73,-3.29,-0.49,4.99
19.650103092193604,-3.67,-3.33,-1.07,5.06
19.659828186035156,-3.57,-3.3,-1.45,5.07
19.669963121414185,-3.7,-3.14,-1.39,5.04
19.679253101348877,-3.93,-2.67,-1.14,4.88
19.699165105819702,-3.95,-1.87,-0.77,4.43
19.700221061706543,-3.46,-1.0,-0.48,3.63
19.709866046905518,-2.28,-0.22,-0.52,2.34
19.72005796432495,-0.88,0.41,-0.86,1.29
19.72925901412964,0.35,1.02,-1.2,1.61
19.74907612800598,1.47,1.81,-1.34,2.68
19.750137090682983,2.28,2.87,-1.28,3.88
19.759863138198853,2.7,4.34,-1.25,5.26
19.770087242126465,3.05,6.08,-1.06,6.88
19.779455184936523,4.05,7.82,-0.82,8.84
19.799384117126465,6.14,9.18,-0.82,11.07
19.800451278686523,8.83,9.66,-0.68,13.1
19.81010913848877,10.83,9.37,0.82,14.34
19.820374965667725,11.64,9.23,2.83,15.12
19.82935619354248,11.4,9.23,2.8,14.93
19.849689960479736,10.66,7.91,0.46,13.28
19.85075616836548,10.8,7.68,-2.11,13.41
19.86024808883667,13.08,8.98,-2.52,16.06
19.87022829055786,17.26,8.22,1.38,19.16
19.879587173461914,18.18,4.9,2.88,19.04
19.899291038513184,16.13,2.15,-1.38,16.33
19.90036416053772,17.5,1.07,-2.71,17.74
19.9100661277771,19.84,0.17,-1.58,19.9
19.920341968536377,22.41,1.1,-2.03,22.52
19.92959499359131,17.39,1.79,-6.99,18.82
19.949624061584473,4.26,1.63,-4.16,6.17
19.950692176818848,-7.73,2.35,2.66,8.5
19.96031427383423,-11.74,10.04,-11.16,19.05
19.970596075057983,-12.93,16.35,-16.52,26.59
19.979634284973145,-10.33,12.92,-4.91,17.25
19.999535083770752,3.95,8.05,2.53,9.31
20.000588178634644,12.3,4.28,6.03,14.35
20.010281085968018,14.33,0.15,4.69,15.07
20.020472049713135,9.46,-3.09,0.6,9.96
20.02963614463806,3.15,-3.21,0.1,4.49
20.049092292785645,-0.22,-1.12,0.83,1.41
20.050156116485596,-0.98,1.0,1.69,2.19
20.06035327911377,1.58,2.21,0.35,2.73
20.070470094680786,3.67,2.36,-1.78,4.71
20.079715251922607,4.41,1.63,-0.76,4.76
20.099720001220703,4.73,0.46,0.38,4.76
20.100789070129395,4.01,-0.34,0.13,4.02
20.110531091690063,2.38,-0.25,-0.36,2.42
20.120766162872314,0.89,0.24,0.21,0.94
20.12983226776123,-0.66,0.45,1.09,1.35
20.150076150894165,-1.86,0.42,0.17,1.91
20.151587963104248,-2.18,0.26,-0.27,2.21
20.160573959350586,-1.8,0.09,0.17,1.81
20.170753002166748,-1.03,0.05,-0.15,1.04
20.179993152618408,-0.06,0.17,-0.43,0.46
20.199676036834717,0.64,0.22,-0.09,0.68
20.20072913169861,1.0,0.1,0.22,1.02
20.210663080215454,0.98,-0.13,0.41,1.07
20.220885276794434,0.31,-0.27,0.37,0.55
20.23004913330078,-0.23,-0.25,0.26,0.42
20.24974513053894,-0.59,-0.21,0.14,0.64
20.250813961029053,-0.69,-0.19,0.17,0.73
20.26073718070984,-0.75,-0.38,0.34,0.9
20.271038055419922,-0.74,-0.36,0.32,0.88
20.280128955841064,-0.68,-0.18,0.55,0.89
20.299707174301147,-0.65,-0.05,0.73,0.97
20.300774097442627,-0.88,-0.08,0.55,1.04
20.31072425842285,-1.12,-0.02,0.42,1.19
20.32107925415039,-1.37,0.06,0.41,1.43
20.330206155776978,-1.44,0.11,0.25,1.46
20.349891185760498,-1.35,0.04,0.44,1.42
20.350950241088867,-1.19,-0.1,0.8,1.43
20.360788106918335,-1.1,0.01,0.87,1.4
20.37113618850708,-1.34,0.27,0.75,1.55
20.38031816482544,-1.86,0.53,0.22,1.94
20.39978814125061,-2.31,0.74,0.21,2.43
20.40085220336914,-2.76,1.07,0.09,2.96
20.410908222198486,-3.23,1.41,-0.14,3.52
20.42115616798401,-3.78,1.81,-0.3,4.2
20.430346965789795,-4.26,2.2,-0.6,4.83
20.449892044067383,-4.39,2.34,-0.78,5.03
20.45096206665039,-4.22,2.06,-0.94,4.78
20.46100425720215,-4.11,1.79,-1.44,4.7
20.471354007720947,-3.98,1.89,-1.74,4.73
20.480478286743164,-3.89,2.66,-1.25,4.87
20.499881267547607,-4.4,3.92,0.01,5.89
20.50094509124756,-5.97,5.4,1.33,8.15
20.5110821723938,-8.39,6.62,1.52,10.79
20.52138614654541,-10.83,7.56,0.98,13.24
20.530481100082397,-12.5,9.12,0.55,15.48
20.550050258636475,-12.82,10.78,-0.18,16.75
20.551485061645508,-11.92,11.01,-0.52,16.23
20.5612530708313,-11.45,10.56,0.25,15.57
20.57157325744629,-11.39,11.29,1.45,16.1
20.580727100372314,-10.78,12.42,2.9,16.69
20.599234104156494,-9.94,12.13,4.03,16.19
20.600504159927368,-9.29,10.61,4.41,14.77
20.6111261844635,-8.76,9.01,4.73,13.42
20.62157917022705,-7.13,7.24,4.63,11.16
20.63063406944275,-5.43,4.52,4.48,8.36
20.649561166763306,-4.84,1.71,4.22,6.64
20.650626182556152,-4.54,1.01,3.84,6.03
20.66120719909668,-1.75,1.7,2.36,3.39
20.671446084976196,0.17,2.41,-0.37,2.44
20.680490970611572,-2.53,2.48,-0.87,3.64
20.700242042541504,-6.89,0.58,0.2,6.91
20.701625108718872,-9.97,-2.37,0.87,10.28
20.711153030395508,-10.84,-4.85,1.36,11.95
20.721484184265137,-9.8,-6.15,1.8,11.7
20.730579137802124,-7.67,-5.88,1.78,9.82
20.749451160430908,-5.89,-4.92,1.4,7.8
20.750513076782227,-4.91,-4.14,1.23,6.53
20.76126003265381,-4.45,-3.89,1.24,6.03
20.771586179733276,-4.32,-4.03,1.22,6.03
20.780771255493164,-4.31,-4.28,0.68,6.11
20.800016164779663,-4.52,-4.38,-0.04,6.29
20.801067113876343,-4.99,-4.25,-0.51,6.57
20.81137704849243,-5.79,-3.83,-0.77,6.98
20.82166814804077,-6.59,-3.12,-0.67,7.32
20.830801010131836,-6.78,-2.22,-0.24,7.13
20.85024118423462,-6.23,-1.15,0.16,6.33
20.851649284362793,-4.81,-0.09,0.24,4.81
20.861600160598755,-2.76,0.88,0.0,2.89
20.87194299697876,-0.77,1.84,-0.28,2.01
20.88097906112671,0.89,2.9,-0.6,3.09
20.8999981880188,2.34,4.01,-0.81,4.71
20.901069164276123,3.5,5.27,-0.64,6.35
20.91161608695984,4.63,7.02,-1.01,8.46
20.921942234039307,6.49,9.19,-2.01,11.42
20.931316137313843,8.96,10.45,-2.8,14.04
20.950255155563354,11.5,9.96,-2.76,15.46
20.951691150665283,12.9,8.81,-1.27,15.67
20.961647033691406,12.6,7.56,0.77,14.71
20.971909999847412,10.57,6.67,1.84,12.63
20.980998992919922,8.78,7.02,0.49,11.25
20.999879121780396,10.05,7.65,-1.85,12.76
21.00094509124756,13.87,8.98,-1.15,16.56
21.011728286743164,17.15,8.75,-0.01,19.25
21.022057056427002,17.27,6.46,0.2,18.43
21.031054973602295,17.36,4.02,-1.36,17.87
21.05003595352173,17.12,1.39,-3.33,17.49
21.051101207733154,17.6,0.45,-4.84,18.25
21.061707973480225,18.96,0.24,-4.93,19.59
21.07210612297058,18.29,3.55,-7.41,20.05
21.081136226654053,3.08,1.42,6.08,6.96
21.10008406639099,-9.16,4.86,-1.25,10.44
21.101195096969604,-10.25,15.48,-18.6,26.28
21.112120151519775,-13.49,17.73,-11.2,24.93
21.122111082077026,-4.71,12.61,0.83,13.48
21.13113307952881,8.27,6.35,4.19,11.23
21.15011215209961,12.97,0.16,4.38,13.69
21.15119504928589,11.34,-4.74,0.13,12.29
21.161874294281006,5.56,-5.38,-0.37,7.74
21.172027111053467,2.07,-2.35,0.82,3.23
21.181225299835205,0.91,0.84,1.07,1.63
21.19994807243347,1.7,2.54,0.12,3.05
21.201237201690674,3.22,3.31,-1.58,4.88
21.211973190307617,3.93,2.51,-0.5,4.68
21.22237205505371,4.55,0.75,0.67,4.65
21.231406211853027,5.57,-0.01,-0.44,5.58
21.250214099884033,5.04,0.13,-0.73,5.09
21.251286029815674,2.54,0.14,0.31,2.56
21.261974096298218,0.23,0.12,0.48,0.54
21.27223515510559,-1.01,0.4,0.5,1.19
21.28141713142395,-1.59,0.45,0.42,1.7
21.300288200378418,-1.59,0.35,-0.23,1.64
21.301372051239014,-1.04,0.3,-0.38,1.14
21.312028169631958,-0.22,0.3,-0.44,0.57
21.322376251220703,0.31,0.31,-0.36,0.56
21.331619262695312,0.54,0.19,-0.27,0.63
21.350526094436646,0.54,-0.01,0.24,0.59
21.351890087127686,0.11,-0.25,0.42,0.5
21.36209201812744,-0.53,-0.4,0.49,0.82
21.372393131256104,-0.92,-0.38,0.62,1.17
21.381685256958008,-0.98,-0.31,0.47,1.13
21.400001049041748,-1.01,-0.47,0.34,1.16
21.401741981506348,-0.97,-0.51,0.34,1.14
21.412171125411987,-0.84,-0.39,0.44,1.02
21.42242407798767,-0.92,-0.25,0.68,1.17
21.431663990020752,-1.3,-0.26,0.75,1.52
21.45045804977417,-1.62,-0.2,0.9,1.86
21.45192313194275,-1.82,-0.15,0.82,2.0
21.462322235107422,-1.8,-0.16,0.45,1.86
21.472593069076538,-1.38,-0.08,0.0,1.38
21.48172903060913,-0.61,0.04,-0.41,0.73
21.500426292419434,0.04,0.25,-0.3,0.39
21.501994132995605,-0.05,0.34,-0.06,0.34
21.51246213912964,-0.8,0.55,0.09,0.97
21.522632122039795,-1.82,0.75,0.16,1.97
21.531928062438965,-2.75,1.0,0.28,2.93
21.550576210021973,-3.53,1.2,0.22,3.73
21.552006244659424,-4.06,1.36,0.34,4.29
21.562344074249268,-4.33,1.75,0.15,4.67
21.572611093521118,-4.4,2.21,-0.05,4.92
21.581943035125732,-4.29,2.35,-0.4,4.9
21.600255966186523,-4.08,2.16,-0.89,4.7
21.602132081985474,-4.03,2.01,-1.67,4.8
21.612426280975342,-4.03,2.13,-1.89,4.93
21.622732162475586,-3.9,2.86,-1.38,5.02
21.631999969482422,-4.25,4.01,-0.18,5.84
21.65014410018921,-5.64,5.36,0.79,7.82
21.65215516090393,-7.87,6.54,1.01,10.28
21.66262722015381,-10.07,7.81,0.63,12.75
21.672852039337158,-11.7,9.47,0.02,15.05
21.68213701248169,-12.24,11.04,-0.76,16.5
21.700459003448486,-11.86,11.37,-1.12,16.46
21.702592134475708,-11.6,11.06,-0.93,16.05
21.712867259979248,-11.1,11.62,0.32,16.07
21.723076105117798,-10.32,12.32,1.94,16.18
21.73204517364502,-9.89,12.06,3.12,15.9
21.750019073486328,-10.06,10.93,3.72,15.31
21.752302169799805,-9.86,9.42,4.08,14.23
21.76272416114807,-8.35,7.32,3.89,11.76
21.773009300231934,-7.14,4.24,3.65,9.07
21.782214164733887,-7.04,1.11,4.01,8.17
21.8004412651062,-7.65,-0.09,3.88,8.57
21.802422046661377,-5.7,0.41,2.78,6.35
21.81279420852661,-1.49,1.55,-0.58,2.22
21.823049068450928,-2.37,1.87,-0.62,3.08
21.83217215538025,-6.39,0.26,1.09,6.48
21.850511074066162,-8.97,-2.29,1.52,9.38
21.852513074874878,-9.34,-4.3,1.95,10.46
21.862889289855957,-8.35,-5.65,2.42,10.36
21.873183250427246,-6.36,-5.84,2.0,8.86
21.882343292236328,-4.26,-5.06,1.21,6.72
21.90065312385559,-2.93,-3.94,0.9,4.99
21.902496099472046,-2.17,-3.39,1.13,4.18
21.91297721862793,-2.41,-3.26,1.36,4.27
21.923272132873535,-2.71,-3.76,1.37,4.83
21.93234920501709,-3.12,-4.35,1.22,5.49
21.950589179992676,-3.71,-4.62,1.02,6.01
21.95257806777954,-4.45,-4.3,0.93,6.25
21.962980270385742,-5.09,-3.35,0.81,6.14
21.973299980163574,-5.47,-2.21,0.78,5.95
21.98254418373108,-5.38,-1.23,0.79,5.57
22.000575065612793,-4.56,-0.44,0.84,4.65
22.002767086029053,-2.85,0.21,0.83,2.97
22.01297903060913,-0.7,0.79,0.59,1.2
22.02334499359131,1.12,1.53,0.34,1.92
22.03250813484192,2.23,2.68,0.13,3.48
22.05054521560669,2.62,4.33,-0.26,5.06
22.052831172943115,2.81,6.21,-0.87,6.87
22.06312894821167,3.58,7.69,-1.51,8.61
22.073426246643066,5.33,8.73,-1.1,10.28
22.082618236541748,7.95,9.59,-0.08,12.45
22.100746154785156,10.42,9.62,0.4,14.18
22.102790117263794,10.96,8.32,1.01,13.79
22.113160133361816,10.69,7.44,0.68,13.04
22.123478174209595,10.75,7.48,-1.56,13.18
22.132663249969482,11.37,7.62,-5.29,14.67
22.15064311027527,12.96,8.38,-6.58,16.77
22.152929067611694,15.38,8.5,-3.98,18.01
22.163191080093384,19.13,6.08,0.71,20.08
22.173627138137817,20.44,2.57,-0.04,20.6
22.182837963104248,19.88,2.46,-4.21,20.46
22.200600147247314,18.84,2.39,-2.98,19.22
22.203036069869995,19.81,2.61,-4.78,20.54
22.213372230529785,16.45,4.84,-5.91,18.13
22.22372817993164,3.06,3.08,0.02,4.34
22.2328200340271,-8.35,8.91,-2.76,12.51
22.25077199935913,-11.52,18.24,-15.83,26.75
22.253005027770996,-15.61,17.04,-7.91,24.42
22.263376235961914,-8.0,9.01,3.09,12.43
22.273787021636963,9.53,2.82,3.92,10.68
22.282876014709473,15.75,-3.48,3.6,16.52
22.300601959228516,13.23,-7.45,1.61,15.26
22.303155183792114,6.21,-5.87,2.71,8.96
22.313462257385254,4.23,-0.76,3.94,5.83
22.32374906539917,3.77,2.7,0.31,4.64
22.332919120788574,2.41,4.15,-3.98,6.23
22.350927114486694,1.53,4.1,-3.97,5.9
22.353178024291992,3.18,2.52,-0.69,4.11
22.363574028015137,5.01,0.41,0.89,5.1
22.373828172683716,4.09,-0.6,-0.43,4.15
22.38307213783264,1.69,-0.47,-0.41,1.8
22.400959968566895,-0.33,0.06,0.96,1.01
22.40321397781372,-1.51,0.31,1.41,2.08
22.41354012489319,-1.89,0.21,0.98,2.13
22.423867225646973,-1.51,0.0,0.52,1.59
22.433014154434204,-0.88,-0.07,0.24,0.91
22.45060396194458,-0.24,0.12,-0.05,0.27
22.453110218048096,0.3,0.26,-0.21,0.44
22.463585138320923,0.48,0.18,-0.07,0.51
22.474029064178467,0.31,0.04,0.11,0.33
22.483160972595215,-0.26,-0.18,0.44,0.54
22.50091314315796,-0.77,-0.25,0.52,0.96
22.50313901901245,-1.13,-0.27,0.35,1.21
22.51375913619995,-1.18,-0.29,0.19,1.22
22.523983001708984,-1.12,-0.29,0.22,1.17
22.533244132995605,-0.83,-0.16,0.01,0.84
22.550894260406494,-0.69,0.03,0.37,0.78
22.553211212158203,-0.82,0.12,0.36,0.9
22.563910007476807,-1.07,0.03,0.45,1.16
22.57404613494873,-1.25,0.02,0.82,1.49
22.583537101745605,-1.49,-0.01,0.49,1.56
22.600536108016968,-1.31,0.18,-0.55,1.43
22.603219032287598,-0.7,0.35,-0.75,1.08
22.613868236541748,-0.16,0.48,-0.54,0.74
22.624242067337036,-0.41,0.68,-0.13,0.8
22.633315086364746,-1.46,0.93,0.2,1.74
22.650923252105713,-2.88,1.11,0.22,3.09
22.653170108795166,-4.18,1.33,0.12,4.38
22.66397523880005,-5.15,1.66,0.25,5.41
22.67418622970581,-5.9,2.14,-0.01,6.27
22.683372974395752,-6.19,2.5,-0.19,6.67
22.70097017288208,-5.77,2.45,-0.54,6.29
22.70326519012451,-5.19,2.27,-0.85,5.72
22.714030265808105,-5.05,2.43,-1.19,5.72
22.724398136138916,-5.46,2.92,-1.53,6.37
22.733561038970947,-6.05,3.84,-1.26,7.27
22.751155138015747,-6.88,5.26,-0.22,8.66
22.75327205657959,-8.29,6.71,0.76,10.69
22.7640221118927,-10.3,8.25,1.26,13.25
22.774485111236572,-12.14,10.33,1.1,15.97
22.783695220947266,-12.91,12.5,0.43,17.97
22.80071496963501,-13.65,13.38,0.59,19.12
22.80348300933838,-13.91,13.55,0.88,19.43
22.814507007598877,-13.26,13.46,2.21,19.02
22.824589252471924,-11.84,12.26,3.07,17.31
22.833789110183716,-10.73,11.02,3.78,15.83
22.850943088531494,-9.76,10.13,4.05,14.63
22.853341102600098,-7.4,8.21,4.23,11.83
22.864397048950195,-5.24,4.95,4.17,8.32
22.87454319000244,-4.89,1.52,4.27,6.66
22.88348627090454,-5.98,0.37,4.27,7.35
22.900877952575684,-5.16,1.05,3.84,6.51
22.903383255004883,-0.92,1.71,0.66,2.05
22.914175987243652,-0.56,2.48,-0.92,2.7
22.92464828491211,-4.55,1.46,-0.05,4.77
22.934412956237793,-8.82,-1.48,1.19,9.02
22.95071315765381,-10.49,-4.1,1.47,11.35
22.953431129455566,-9.46,-5.64,1.71,11.14
22.96430015563965,-7.03,-5.75,1.29,9.17
22.974725246429443,-4.83,-4.82,0.44,6.83
22.983752250671387,-3.62,-3.88,-0.11,5.3
23.00074315071106,-3.47,-3.45,-0.24,4.89
23.003615140914917,-3.82,-3.67,-0.27,5.3
23.014321088790894,-4.25,-4.28,-0.5,6.05
23.024790287017822,-4.63,-4.84,-1.08,6.78
23.03396224975586,-4.82,-5.09,-1.73,7.22
23.051016092300415,-4.85,-4.83,-2.07,7.15
23.05355930328369,-4.73,-4.09,-2.01,6.56
23.064479112625122,-4.47,-3.08,-1.68,5.68
23.074769020080566,-3.91,-2.05,-1.44,4.64
23.08393096923828,-3.03,-1.11,-1.27,3.46
23.101134300231934,-2.02,-0.22,-1.13,2.32
23.10379123687744,-0.98,0.62,-1.06,1.57
23.114639282226562,0.02,1.36,-0.87,1.61
23.124866008758545,0.83,2.43,-0.6,2.63
23.134068965911865,1.49,4.28,-0.77,4.59
23.151029109954834,2.18,6.71,-1.45,7.2
23.153754234313965,2.85,9.29,-1.25,9.79
23.164896965026855,4.76,11.94,-0.5,12.86
23.175212144851685,9.18,12.99,-0.21,15.9
23.184040069580078,13.84,11.48,-0.28,17.98
23.200648069381714,15.73,9.32,1.07,18.31
23.20388698577881,15.47,7.95,2.19,17.53
23.21457004547119,11.36,7.18,-0.9,13.46
23.22495698928833,11.09,8.03,-3.75,14.19
23.234106063842773,14.55,10.05,-3.83,18.09
23.25083017349243,18.0,8.61,-1.45,20.0
23.25394296646118,19.29,4.0,3.58,20.02
23.264844179153442,18.97,0.86,-0.27,18.99
23.275104999542236,18.16,1.02,-4.83,18.81
23.28424310684204,20.27,1.95,-2.61,20.53
23.300822257995605,21.36,1.46,-2.99,21.61
23.304046154022217,14.18,3.33,-7.49,16.37
23.314788103103638,-0.76,1.92,3.48,4.04
23.32518196105957,-10.39,6.93,-2.45,12.72
23.33431911468506,-11.22,15.77,-19.34,27.36
23.350799083709717,-14.54,15.93,-11.17,24.28
23.354093074798584,-5.35,11.84,3.2,13.38
23.364805221557617,10.19,7.69,6.26,14.21
23.375132083892822,16.57,1.47,4.56,17.24
23.384286165237427,13.88,-4.35,-0.25,14.54
23.401034116744995,5.61,-5.1,-0.62,7.6
23.40421199798584,1.05,-1.9,2.78,3.52
23.414942264556885,0.36,0.78,2.35,2.5
23.425360202789307,0.92,1.89,-0.44,2.14
23.434450149536133,1.03,1.98,-1.26,2.56
23.450822114944458,2.09,1.64,0.43,2.69
23.45433807373047,4.14,0.81,0.03,4.21
23.465052127838135,5.42,0.25,-0.92,5.5
23.475422143936157,4.45,0.31,-0.62,4.5
23.484511137008667,2.09,0.27,-0.1,2.1
23.500882148742676,0.02,0.14,0.36,0.38
23.504399299621582,-1.66,0.17,0.28,1.69
23.515035152435303,-2.6,0.28,0.12,2.61
23.525506019592285,-2.22,0.33,-0.39,2.27
23.53455114364624,-1.07,0.14,-0.12,1.08
23.550953149795532,-0.03,-0.01,0.11,0.11
23.554352283477783,0.75,-0.13,0.2,0.78
23.565194129943848,0.71,-0.31,0.47,0.9
23.57546901702881,0.32,-0.23,0.26,0.47
23.58469295501709,0.05,0.01,0.27,0.27
23.6009202003479,-0.17,0.05,0.19,0.25
23.604534149169922,-0.23,-0.14,-0.05,0.27
23.61507225036621,-0.06,-0.25,-0.05,0.26
23.62559700012207,0.02,-0.27,0.19,0.33
23.634716987609863,-0.1,-0.19,0.38,0.43
23.65110206604004,-0.47,-0.22,0.68,0.85
23.654489040374756,-1.11,-0.16,1.0,1.5
23.665308952331543,-1.88,-0.06,1.18,2.22
23.675706148147583,-2.4,0.03,0.89,2.55
23.68480920791626,-2.33,0.08,0.23,2.34
23.70110011100769,-1.9,0.04,-0.16,1.9
23.704689025878906,-1.69,0.07,-0.03,1.69
23.71537494659424,-1.55,0.34,-0.13,1.59
23.725723266601562,-1.42,0.52,-0.04,1.51
23.734800100326538,-1.6,0.56,0.14,1.7
23.751179218292236,-2.22,0.63,0.24,2.32
23.754592180252075,-2.92,0.7,0.23,3.01
23.765690088272095,-3.53,0.79,0.24,3.62
23.77575922012329,-3.92,0.95,0.07,4.03
23.78492498397827,-3.95,1.42,-0.13,4.19
23.80118417739868,-3.74,2.09,-0.54,4.31
23.805142164230347,-3.43,2.56,-0.93,4.37
23.815471172332764,-3.26,2.45,-1.21,4.25
23.826097011566162,-3.52,2.18,-1.51,4.4
23.834954261779785,-4.22,2.22,-1.73,5.07
23.851437091827393,-4.64,2.82,-1.64,5.67
23.854844093322754,-4.94,3.86,-0.6,6.29
23.86575412750244,-6.16,4.97,0.77,7.95
23.875893115997314,-8.25,6.42,1.45,10.55
23.885128021240234,-10.45,8.35,1.66,13.47
23.901278972625732,-11.81,10.52,0.95,15.84
23.90523099899292,-12.87,11.82,0.85,17.49
23.91579008102417,-13.07,12.1,0.15,17.81
23.926259994506836,-11.56,12.53,1.16,17.08
23.935282230377197,-9.27,12.62,2.35,15.83
23.951516151428223,-7.82,11.44,3.03,14.18
23.955078125,-7.31,10.16,3.61,13.02
23.965758085250854,-6.22,9.3,3.85,11.83
23.976099014282227,-5.05,7.82,3.08,9.8
23.985181093215942,-5.47,5.24,2.71,8.04
24.00151300430298,-6.37,2.48,2.23,7.19
24.005033016204834,-6.84,1.28,1.74,7.17
24.015828132629395,-4.01,1.51,0.06,4.28
24.0260591506958,-2.47,2.06,-1.18,3.42
24.035240173339844,-5.51,1.59,0.29,5.74
24.051562070846558,-8.35,-0.33,1.49,8.48
24.055148124694824,-9.04,-2.56,1.71,9.54
24.065842151641846,-8.21,-4.34,1.65,9.43
24.07616424560547,-6.72,-5.03,1.04,8.45
24.08531904220581,-5.48,-4.68,0.28,7.21
24.10161018371582,-4.89,-4.0,-0.15,6.31
24.105260133743286,-4.79,-3.74,-0.32,6.08
24.115952014923096,-4.93,-3.87,-0.25,6.27
24.126200199127197,-5.15,-4.16,-0.35,6.62
24.13539409637451,-5.27,-4.41,-0.6,6.89
24.151703119277954,-5.3,-4.55,-0.83,7.03
24.15535020828247,-5.36,-4.49,-0.88,7.04
24.16600012779236,-5.34,-4.2,-0.82,6.84
24.176280975341797,-5.16,-3.65,-0.62,6.35
24.185479164123535,-4.77,-2.9,-0.52,5.6
24.201766967773438,-4.36,-2.08,-0.52,4.85
24.20544195175171,-4.03,-1.12,-0.56,4.22
24.216010093688965,-3.65,-0.09,-0.6,3.7
24.226362228393555,-2.8,1.06,-0.7,3.07
24.235555171966553,-1.39,2.16,-1.06,2.77
24.251851081848145,0.41,3.16,-1.42,3.48
24.255417108535767,2.14,4.17,-1.6,4.95
24.266010284423828,3.55,5.34,-1.92,6.69
24.276467084884644,4.65,6.83,-2.34,8.58
24.28552508354187,5.62,8.56,-2.42,10.52
24.301810264587402,6.64,9.93,-2.02,12.11
24.305514097213745,7.86,10.15,-1.48,12.92
24.31615924835205,8.95,9.25,-0.32,12.87
24.32651424407959,9.49,7.87,1.11,12.37
24.33566117286682,9.6,7.05,1.41,11.99
24.35191297531128,9.74,7.13,-0.63,12.08
24.35555410385132,9.56,8.17,-1.91,12.71
24.366151094436646,11.2,9.48,-3.08,14.99
24.3766450881958,15.3,8.66,-1.31,17.62
24.38572120666504,17.73,5.01,1.81,18.51
24.40220618247986,18.05,1.53,-0.65,18.12
24.40569019317627,18.34,0.35,-2.9,18.57
24.41639995574951,19.73,0.2,-3.43,20.02
24.42668628692627,22.54,1.07,-1.99,22.65
24.435906171798706,20.93,2.12,-5.9,21.84
24.452187061309814,8.15,3.39,-2.8,9.26
24.455559253692627,-5.33,2.59,7.04,9.2
24.466536045074463,-11.34,8.7,-4.68,15.03
24.47653818130493,-11.8,15.24,-14.27,23.98
24.486488103866577,-10.02,13.46,-5.0,17.5
24.510488033294678,2.73,9.75,3.27,10.63
24.511579036712646,12.99,6.29,4.49,15.11
24.516297101974487,15.66,0.36,0.86,15.68
24.52657127380371,8.65,-4.32,-2.97,10.11
24.535889148712158,2.59,-4.28,-1.29,5.16
24.552138090133667,0.41,-1.14,1.74,2.12
24.55581521987915,1.18,1.4,1.52,2.37
24.566490173339844,2.01,2.2,0.09,2.98
24.576800107955933,1.48,2.21,-0.16,2.66
24.585925102233887,2.27,1.64,-0.09,2.8
24.60226607322693,3.85,0.65,-0.41,3.92
24.605939149856567,4.64,0.1,-0.17,4.64
24.61662197113037,3.42,-0.01,0.21,3.42
24.626893043518066,1.24,0.14,0.33,1.29
24.63603115081787,-0.54,0.34,0.06,0.64
24.652294158935547,-1.56,0.36,0.13,1.6
24.65595817565918,-1.72,0.3,0.11,1.74
24.666584968566895,-1.14,0.28,-0.17,1.18
24.67703628540039,-0.57,0.24,-0.02,0.61
24.68607807159424,-0.06,0.16,-0.01,0.17
24.702378273010254,0.11,-0.13,0.41,0.44
24.706013202667236,-0.02,-0.4,0.32,0.51
24.716796159744263,-0.05,-0.38,0.41,0.56
24.72705912590027,-0.2,-0.31,0.54,0.65
24.73613405227661,-0.56,-0.31,0.45,0.78
24.752426147460938,-0.84,-0.33,0.11,0.9
24.756116151809692,-0.89,-0.37,-0.01,0.96
24.76670217514038,-0.61,-0.28,0.02,0.67
24.777022123336792,-0.36,-0.16,0.11,0.4
24.78664517402649,-0.39,-0.21,0.25,0.5
24.8116192817688,-0.55,-0.16,0.26,0.62
24.812796115875244,-0.94,-0.25,0.28,1.01
24.817031145095825,-1.29,-0.28,0.24,1.34
24.82729196548462,-1.48,-0.19,0.54,1.58
24.836843967437744,-1.38,-0.2,0.73,1.57
24.86225414276123,-1.12,-0.25,0.62,1.3
24.86336326599121,-0.95,-0.07,0.52,1.08
24.867051124572754,-1.25,0.28,0.72,1.46
24.877334117889404,-1.97,0.55,0.64,2.14
24.886765956878662,-2.82,0.67,0.37,2.92
24.910641193389893,-3.53,0.69,0.0,3.59
24.91171407699585,-4.06,0.81,-0.22,4.14
24.917047023773193,-4.29,1.28,-0.35,4.49
24.92833423614502,-4.2,1.93,-0.5,4.64
24.93699812889099,-3.96,2.31,-0.93,4.67
24.961066246032715,-3.5,2.12,-1.22,4.26
24.962135076522827,-3.18,1.77,-1.19,3.82
24.967164993286133,-3.3,1.8,-1.42,4.01
24.977347135543823,-3.7,2.34,-1.37,4.58
24.986895084381104,-4.12,3.23,-0.87,5.3
25.01073908805847,-4.88,4.32,-0.01,6.51
25.011810302734375,-6.36,5.48,0.55,8.41
25.017104148864746,-8.34,6.36,0.17,10.48
25.027461051940918,-10.08,7.42,-0.69,12.53
25.03695297241211,-11.01,9.21,-1.54,14.43
25.06099224090576,-11.24,10.63,-1.94,15.59
25.06206226348877,-10.47,10.99,-2.28,15.34
25.06736421585083,-9.96,11.39,-1.53,15.2
25.07783317565918,-9.61,12.64,-0.14,15.87
25.087257146835327,-8.65,13.57,1.35,16.14
25.110708236694336,-8.02,12.48,2.16,14.99
25.111786127090454,-8.16,10.12,2.7,13.27
25.117265224456787,-7.65,8.14,2.74,11.5
25.127604961395264,-6.57,5.87,2.07,9.05
25.137145042419434,-6.63,2.46,2.92,7.65
25.16090416908264,-7.22,-0.59,4.52,8.53
25.16197395324707,-7.07,-2.35,3.79,8.35
25.167372226715088,-4.42,-2.08,2.0,5.27
25.17761206626892,-0.34,-0.24,-1.38,1.44
25.1871600151062,-1.65,0.73,-2.77,3.3
25.211182117462158,-6.08,-1.17,-0.38,6.2
25.212257146835327,-8.93,-3.67,1.35,9.74
25.217345237731934,-9.34,-5.63,1.62,11.02
25.227703094482422,-8.13,-6.81,1.37,10.69
25.23732614517212,-6.02,-6.74,0.49,9.05
25.261113166809082,-4.3,-5.89,0.04,7.29
25.262187004089355,-3.39,-4.96,0.45,6.02
25.26751208305359,-3.15,-4.45,1.27,5.59
25.277766227722168,-3.22,-4.44,1.6,5.71
25.28730607032776,-3.5,-4.63,1.28,5.94
25.311241149902344,-3.84,-4.79,0.77,6.18
25.312308073043823,-4.23,-4.65,0.24,6.29
25.317466259002686,-4.69,-4.11,-0.18,6.23
25.328041076660156,-5.08,-3.08,-0.35,5.95
25.337292194366455,-4.95,-1.87,-0.43,5.3
25.361220121383667,-4.37,-0.8,-0.49,4.46
25.362285137176514,-3.22,-0.05,-0.54,3.26
25.368958950042725,-1.48,0.5,-0.62,1.68
25.37790012359619,0.17,1.14,-0.43,1.23
25.387505054473877,1.46,1.83,-0.13,2.34
25.411211013793945,2.34,2.58,0.0,3.48
25.412291049957275,2.87,3.76,-0.01,4.73
25.41762399673462,3.47,5.71,-0.36,6.69
25.42787504196167,4.74,8.02,-1.03,9.37
25.437467098236084,6.82,9.8,-1.36,12.01
25.46188497543335,8.57,10.17,-0.77,13.32
25.46295714378357,9.35,9.53,0.21,13.35
25.467778205871582,9.55,8.82,1.19,13.05
25.47807216644287,9.5,8.57,1.35,12.86
25.487531185150146,9.06,8.43,-0.72,12.39
25.51118803024292,8.42,9.18,-2.34,12.67
25.51225519180298,10.62,9.7,-2.77,14.64
25.517861127853394,16.04,8.26,-0.52,18.04
25.52808904647827,18.31,4.26,0.37,18.8
25.53764295578003,17.9,1.06,-0.81,17.94
25.561508178710938,19.13,0.22,-0.27,19.13
25.5625741481781,20.45,0.89,-2.14,20.58
25.56794500350952,18.82,1.06,-4.09,19.28
25.578163146972656,11.33,1.95,-7.02,13.47
25.587697982788086,0.33,1.06,1.12,1.57
25.611408233642578,-9.5,3.03,1.25,10.04
25.612481117248535,-11.58,8.93,-11.28,18.46
25.617879152297974,-12.28,10.43,-11.08,19.55
25.62814426422119,-6.01,6.09,-2.81,9.0
25.637660026550293,5.6,4.35,3.59,7.94
25.662114143371582,13.11,6.13,6.48,15.85
25.663196086883545,15.18,5.54,1.62,16.24
25.668055057525635,9.68,1.3,-3.39,10.33
25.678293228149414,2.2,-0.53,-2.0,3.02
25.687819957733154,-1.57,-0.44,-0.09,1.63
25.71201229095459,-2.13,0.01,0.2,2.13
25.71308708190918,0.21,0.35,-0.39,0.56
25.718048095703125,2.53,0.81,0.15,2.66
25.728342056274414,4.09,0.78,0.33,4.17
25.73795509338379,5.26,0.7,-0.88,5.37
25.761760234832764,4.99,0.55,-0.02,5.02
25.76283025741577,2.86,0.25,0.96,3.02
25.768144130706787,0.83,0.22,0.3,0.9
25.778449058532715,-0.61,0.23,0.16,0.67
25.7879581451416,-1.55,0.2,-0.07,1.56
25.812814235687256,-1.79,0.25,0.17,1.81
25.813910007476807,-1.37,0.21,0.21,1.4
25.81835126876831,-0.7,0.04,0.14,0.71
25.828675270080566,-0.15,-0.04,0.04,0.16
25.838035106658936,0.17,-0.1,-0.14,0.24
25.862739086151123,0.28,-0.18,0.01,0.33
25.863827228546143,0.17,-0.2,0.05,0.26
25.868328094482422,0.04,-0.19,-0.03,0.19
25.8786780834198,-0.08,-0.22,0.16,0.28
25.888038158416748,-0.21,-0.32,0.15,0.41
25.912137031555176,-0.36,-0.46,0.15,0.6
25.913214206695557,-0.49,-0.42,0.22,0.68
25.918360233306885,-0.48,-0.23,0.34,0.63
25.92867612838745,-0.41,-0.1,0.35,0.54
25.937885284423828,-0.41,-0.18,0.22,0.49
25.962902069091797,-0.38,-0.24,0.05,0.45
25.963973999023438,-0.43,-0.17,0.08,0.46
25.96846914291382,-0.59,-0.03,0.07,0.59
25.978729248046875,-0.77,0.11,0.18,0.79
25.988107204437256,-1.01,0.21,0.42,1.11
26.01243829727173,-1.37,0.21,0.64,1.52
26.013517141342163,-1.69,0.22,0.92,1.93
26.01841926574707,-1.86,0.21,0.88,2.06
26.028802156448364,-1.96,0.28,0.55,2.05
26.038095951080322,-2.25,0.5,0.23,2.31
26.062786102294922,-2.71,0.75,0.13,2.81
26.06377124786377,-3.29,0.94,0.13,3.42
26.068597078323364,-3.79,1.03,-0.1,3.92
26.07892608642578,-3.97,1.18,-0.4,4.16
26.088094234466553,-3.72,1.4,-0.84,4.06
26.112722158432007,-3.25,1.44,-0.6,3.6
26.11378812789917,-3.03,1.43,-0.63,3.4
26.118659019470215,-3.23,1.39,-0.84,3.61
26.12898826599121,-3.38,1.66,-0.8,3.84
26.13811707496643,-3.44,2.48,0.19,4.24
26.16254210472107,-4.32,3.61,1.35,5.78
26.163599014282227,-6.24,4.64,1.72,7.96
26.16866707801819,-8.31,5.52,1.36,10.06
26.17908000946045,-9.5,6.51,0.69,11.53
26.188175201416016,-9.55,7.41,0.29,12.09
26.2132351398468,-9.0,8.32,0.21,12.25
26.21433711051941,-8.43,9.57,-0.19,12.75
26.218975067138672,-8.49,11.27,0.06,14.11
26.22937822341919,-9.88,12.09,0.37,15.61
26.238224983215332,-10.5,11.91,0.34,15.88
26.262697219848633,-9.99,10.93,0.95,14.83
26.263764142990112,-9.68,9.68,1.37,13.75
26.26881217956543,-9.43,8.77,2.05,13.03
26.279057025909424,-8.1,7.6,2.5,11.38
26.288190126419067,-6.28,5.45,1.71,8.48
26.3122341632843,-5.79,2.77,2.04,6.73
26.313302040100098,-5.23,0.22,3.16,6.11
26.318812131881714,-3.79,-0.73,2.81,4.77
26.32920217514038,-0.95,-0.22,0.9,1.32
26.338216066360474,0.35,0.85,-2.03,2.22
26.362415075302124,-2.77,1.02,-1.47,3.29
26.36348295211792,-7.24,-1.24,1.3,7.45
26.368921279907227,-9.22,-3.86,2.11,10.21
26.379268169403076,-8.22,-5.68,2.25,10.24
26.388336181640625,-6.06,-6.06,1.69,8.73
26.413023948669434,-4.39,-5.26,0.6,6.87
26.414168119430542,-3.63,-4.29,-0.07,5.62
26.419082164764404,-3.63,-4.02,-0.02,5.41
26.429396152496338,-3.87,-4.28,0.2,5.77
26.43842315673828,-4.07,-4.65,0.15,6.18
26.46280002593994,-4.22,-4.85,-0.19,6.43
26.463869094848633,-4.4,-4.84,-0.58,6.56
26.469168186187744,-4.57,-4.76,-0.82,6.64
26.47941517829895,-4.62,-4.53,-0.97,6.54
26.48845624923706,-4.7,-4.06,-1.03,6.29
26.512639045715332,-4.74,-3.35,-0.98,5.88
26.513715267181396,-4.61,-2.48,-0.96,5.32
26.519206047058105,-4.18,-1.41,-0.89,4.5
26.529545068740845,-3.03,-0.08,-0.77,3.12
26.53847908973694,-1.11,1.16,-0.72,1.75
26.56316113471985,1.04,2.01,-0.9,2.43
26.56424903869629,2.79,2.94,-1.35,4.27
26.569374084472656,3.55,4.1,-1.81,5.71
26.579561233520508,3.5,5.4,-1.92,6.71
26.588632106781006,3.68,6.97,-1.42,8.0
26.613829135894775,4.74,8.57,-0.48,9.8
26.614915132522583,6.82,9.48,0.21,11.68
26.619344234466553,9.0,9.34,0.47,12.97
26.629823207855225,9.7,8.25,2.14,12.91
26.638705253601074,9.49,7.08,3.86,12.45
26.66345715522766,8.03,6.66,3.55,11.01
26.66452717781067,7.44,7.53,-0.29,10.58
26.669454097747803,9.63,9.96,-3.4,14.26
26.67967414855957,14.6,10.1,-0.68,17.76
26.68881320953369,17.98,6.37,3.21,19.34
26.713025093078613,17.36,2.02,-1.58,17.54
26.714097023010254,17.78,0.35,-5.85,18.72
26.719524145126343,19.64,-0.11,-5.49,20.39
26.729868173599243,21.6,2.09,-7.82,23.06
26.738845109939575,12.13,1.17,-1.02,12.22
26.763514041900635,-5.07,2.79,4.03,7.05
26.764585971832275,-10.8,12.72,-7.35,18.23
26.769517183303833,-11.63,16.09,-10.9,22.64
26.779757976531982,-9.68,10.44,-0.34,14.24
26.788952112197876,2.23,4.81,4.24,6.78
26.813562154769897,11.32,1.53,4.66,12.33
26.814635276794434,15.05,-2.07,2.38,15.37
26.819669246673584,10.45,-4.33,0.32,11.31
26.83002996444702,4.84,-2.62,0.8,5.56
26.839046955108643,2.67,0.49,-0.5,2.76
26.86365795135498,2.08,2.96,-3.48,5.01
26.86464214324951,1.3,3.92,-3.48,5.4
26.869776248931885,1.07,3.28,-0.94,3.57
26.87998628616333,2.36,1.16,0.68,2.71
26.88899803161621,3.45,-0.76,0.53,3.57
26.91384506225586,3.42,-1.11,0.02,3.59
26.914918184280396,2.01,-0.34,0.3,2.06
26.91977310180664,0.16,0.41,0.82,0.93
26.930034160614014,-1.27,0.66,0.45,1.5
26.939005136489868,-1.91,0.56,0.46,2.04
26.963768005371094,-1.5,0.19,0.61,1.63
26.964835166931152,-0.38,0.02,0.08,0.38
26.96976900100708,0.64,0.09,-0.27,0.7
26.980067253112793,0.99,0.05,0.03,0.99
26.989299297332764,0.44,-0.24,0.15,0.52
27.01352596282959,-0.48,-0.34,0.12,0.6
27.01459813117981,-1.06,-0.17,0.23,1.09
27.019789218902588,-1.22,-0.13,0.19,1.24
27.030121088027954,-1.16,-0.25,0.02,1.18
27.03931427001953,-0.93,-0.43,-0.04,1.02
27.06340503692627,-0.71,-0.58,0.23,0.94
27.064476013183594,-0.63,-0.54,0.18,0.84
27.070053100585938,-0.65,-0.4,0.21,0.79
27.080268144607544,-0.58,-0.36,0.29,0.74
27.08948016166687,-0.45,-0.27,0.28,0.59
27.114110946655273,-0.54,-0.17,0.18,0.59
27.11517906188965,-0.66,0.04,0.06,0.66
27.120084285736084,-0.54,0.21,0.07,0.58
27.13033628463745,-0.35,0.16,0.1,0.39
27.13947629928589,-0.31,0.03,0.24,0.39
27.16428518295288,-0.56,0.01,0.31,0.64
27.16535210609436,-0.85,0.13,0.49,0.98
27.170045137405396,-1.04,0.22,0.7,1.27
27.18031120300293,-1.2,0.22,0.81,1.46
27.189573287963867,-1.53,0.26,1.06,1.87
27.21462106704712,-2.04,0.36,0.73,2.19
27.21570611000061,-2.47,0.47,0.3,2.53
27.22015619277954,-2.83,0.5,0.08,2.87
27.230509281158447,-3.15,0.6,-0.14,3.2
27.23970913887024,-3.27,0.85,-0.39,3.4
27.264373302459717,-3.18,1.13,-0.75,3.45
27.265449047088623,-2.88,1.23,-0.66,3.2
27.270222187042236,-2.8,1.26,-0.58,3.12
27.280546188354492,-3.11,1.36,-1.07,3.55
27.28975009918213,-3.42,1.49,-1.36,3.97
27.314126014709473,-3.36,2.01,-0.75,3.98
27.315206050872803,-3.72,3.22,0.64,4.96
27.320300102233887,-5.28,4.76,1.58,7.28
27.330631256103516,-7.54,6.21,1.74,9.92
27.33983325958252,-9.56,7.3,1.14,12.08
27.36422300338745,-10.44,7.8,0.45,13.03
27.365289211273193,-10.21,8.3,0.1,13.15
27.37042212486267,-9.66,9.62,0.34,13.63
27.380561113357544,-9.4,11.7,0.47,15.01
27.390167236328125,-10.21,13.16,0.76,16.67
27.414000034332275,-11.44,12.61,1.36,17.08
27.41508197784424,-11.22,10.98,2.29,15.86
27.420427083969116,-10.34,9.32,3.41,14.33
27.430665969848633,-9.19,8.22,4.47,13.11
27.440001010894775,-6.42,6.76,5.34,10.74
27.465196132659912,-3.47,4.3,4.15,6.91
27.46625804901123,-3.28,1.42,3.31,4.87
27.47053098678589,-4.91,-0.48,3.38,5.98
27.4807231426239,-4.72,-1.08,2.65,5.51
27.49000310897827,-1.26,-0.81,0.88,1.73
27.514440059661865,0.75,0.76,-0.41,1.14
27.515504121780396,-2.21,0.51,0.16,2.27
27.520493984222412,-6.7,-2.21,2.05,7.34
27.530924081802368,-9.15,-5.16,2.54,10.8
27.54014015197754,-8.88,-6.92,2.44,11.51
27.564674139022827,-6.64,-7.09,1.82,9.88
27.5657320022583,-4.12,-6.15,0.86,7.45
27.571208000183105,-2.45,-5.21,0.47,5.77
27.580878257751465,-1.96,-4.96,0.58,5.36
27.59017515182495,-2.47,-5.37,0.87,5.97
27.614108085632324,-3.19,-5.94,1.03,6.82
27.615175247192383,-3.7,-6.15,0.87,7.22
27.621093273162842,-3.89,-5.95,0.53,7.12
27.630893230438232,-3.85,-5.56,0.32,6.77
27.640263080596924,-3.75,-4.96,0.43,6.23
27.664603233337402,-3.72,-4.1,0.6,5.56
27.665668964385986,-3.76,-3.02,0.78,4.88
27.67103624343872,-3.55,-2.08,1.07,4.25
27.681111097335815,-2.98,-1.22,1.22,3.44
27.690320014953613,-1.96,-0.24,1.25,2.33
27.71476697921753,-0.4,0.76,1.28,1.54
27.71583318710327,1.11,1.64,1.42,2.43
27.721095085144043,2.31,2.75,1.26,3.8
27.73118019104004,3.45,4.29,0.35,5.51
27.74032711982727,4.96,6.56,-0.76,8.25
27.764320135116577,7.08,9.1,-1.48,11.62
27.76539707183838,9.33,10.17,-1.72,13.9
27.771281242370605,10.59,9.14,-1.01,14.02
27.781328201293945,10.58,7.85,0.86,13.2
27.790431022644043,9.69,7.36,2.75,12.47
27.81491994857788,8.59,7.53,2.92,11.79
27.815991163253784,7.58,7.0,0.65,10.33
27.821399211883545,7.5,6.53,-2.25,10.19
27.83134913444519,8.94,8.33,-3.06,12.59
27.840530157089233,12.68,8.26,0.49,15.14
27.865262985229492,17.09,5.79,3.49,18.37
27.86633014678955,18.29,1.77,-1.5,18.43
27.87152409553528,17.7,-0.21,-4.16,18.18
27.88139510154724,17.11,0.25,-2.53,17.29
27.890573024749756,13.27,0.73,-5.14,14.24
27.914950132369995,8.85,2.45,-8.19,12.3
27.916016101837158,-2.13,0.57,0.41,2.24
27.921545028686523,-11.34,3.23,-3.45,12.28
27.93151307106018,-11.42,8.96,-15.38,21.14
27.940608024597168,-10.77,10.25,-11.78,18.96
27.96569299697876,-3.64,6.44,-1.11,7.48
27.96676206588745,4.44,3.29,3.8,6.7
27.97164821624756,10.06,2.89,4.99,11.59
27.98146104812622,12.11,3.17,3.92,13.11
27.990698099136353,8.91,1.87,0.43,9.11
28.015164136886597,3.52,-0.73,-0.74,3.67
28.01624608039856,-0.63,-1.37,0.05,1.5
28.02151107788086,-2.2,0.09,1.2,2.5
28.031561136245728,0.44,1.84,0.46,1.94
28.04068422317505,3.12,2.57,-2.02,4.51
28.065986156463623,3.94,2.15,-2.13,4.96
28.06705617904663,4.08,0.88,-0.23,4.18
28.07165813446045,3.83,-0.44,0.59,3.9
28.081695079803467,2.44,-0.6,0.63,2.59
28.090877056121826,0.65,0.07,0.39,0.76
28.11501121520996,-0.34,0.5,-0.03,0.6
28.116074085235596,-0.6,0.56,-0.41,0.91
28.12166929244995,-0.84,0.36,-0.07,0.91
28.131646156311035,-1.01,0.11,0.2,1.03
28.140827178955078,-0.66,-0.01,0.17,0.68
28.16549301147461,-0.06,-0.1,0.18,0.21
28.166486263275146,0.35,-0.14,0.18,0.41
28.171853065490723,0.3,-0.21,0.32,0.48
28.181775093078613,-0.18,-0.29,0.42,0.54
28.1910080909729,-0.94,-0.38,0.31,1.06
28.21541714668274,-1.34,-0.28,-0.14,1.37
28.21648597717285,-1.2,-0.1,-0.17,1.21
28.221843242645264,-0.78,-0.13,0.12,0.79
28.231812953948975,-0.32,-0.28,0.22,0.47
28.24095106124878,-0.27,-0.44,0.03,0.51
28.265385150909424,-0.35,-0.45,0.08,0.57
28.26646327972412,-0.5,-0.33,0.21,0.63
28.27194118499756,-0.78,-0.16,0.21,0.82
28.281963109970093,-1.01,-0.05,0.16,1.02
28.291145086288452,-1.03,-0.01,0.02,1.03
28.315526008605957,-0.94,0.11,-0.01,0.94
28.31659507751465,-0.83,0.21,0.05,0.85
28.322028160095215,-0.56,0.13,0.13,0.58
28.33198595046997,-0.34,-0.01,-0.07,0.34
28.341153144836426,-0.26,-0.16,-0.06,0.31
28.366064071655273,-0.14,-0.31,0.21,0.39
28.36712908744812,-0.22,-0.39,0.52,0.68
28.3721661567688,-0.97,-0.36,0.66,1.22
28.38198208808899,-1.91,-0.11,0.69,2.03
28.391283988952637,-2.6,0.18,0.42,2.63
28.41568613052368,-2.83,0.28,0.43,2.87
28.416749000549316,-2.84,0.29,0.52,2.9
28.422145128250122,-2.57,0.34,0.44,2.62
28.43213129043579,-2.43,0.67,0.17,2.52
28.44126796722412,-2.35,0.92,-0.07,2.52
28.46542501449585,-2.4,0.88,-0.25,2.56
28.46649408340454,-2.76,0.8,-0.82,2.98
28.472288131713867,-3.2,1.07,-1.1,3.54
28.482244968414307,-3.22,1.92,-0.57,3.79
28.491409301757812,-3.37,3.11,0.01,4.58
28.5159010887146,-4.63,4.42,0.4,6.41
28.51697015762329,-6.43,5.72,0.16,8.6
28.5223491191864,-7.77,7.14,-0.54,10.56
28.532288074493408,-8.25,7.91,-1.14,11.48
28.541414260864258,-8.06,7.92,-1.58,11.4
28.56612205505371,-7.52,8.42,-1.29,11.36
28.567190170288086,-7.13,9.83,-0.63,12.15
28.572582244873047,-7.68,11.59,0.11,13.9
28.582505226135254,-9.17,12.58,0.46,15.57
28.591549158096313,-10.9,11.74,1.26,16.06
28.615710258483887,-10.44,9.15,2.2,14.05
28.61677312850952,-7.85,6.77,3.17,10.83
28.622436046600342,-5.74,5.12,3.99,8.66
28.63248920440674,-4.13,3.65,4.18,6.91
28.641557216644287,-2.75,2.45,3.63,5.17
28.66564416885376,-2.54,1.18,2.95,4.06
28.66672110557556,-3.45,-0.54,3.23,4.75
28.672706127166748,-4.31,-2.69,3.33,6.07
28.68241024017334,-3.98,-4.28,2.77,6.46
28.691747188568115,-2.26,-3.88,1.75,4.81
28.71614718437195,-1.18,-1.95,-0.44,2.32
28.71721315383911,-3.07,-1.25,-1.09,3.48
28.722488164901733,-5.87,-2.49,0.61,6.4
28.732582092285156,-7.2,-4.21,1.84,8.54
28.741668224334717,-6.48,-5.48,2.28,8.78
28.766316175460815,-4.79,-5.84,1.85,7.77
28.7673921585083,-3.17,-5.27,0.98,6.22
28.77269411087036,-2.41,-4.29,0.67,4.96
28.782576084136963,-2.67,-3.66,0.64,4.57
28.791837215423584,-3.2,-3.62,0.78,4.89
28.816232204437256,-3.71,-3.87,0.7,5.4
28.817304134368896,-4.2,-4.13,0.2,5.89
28.82268524169922,-4.72,-4.18,-0.34,6.31
28.832707166671753,-5.21,-3.8,-0.61,6.47
28.841745138168335,-5.43,-3.14,-0.65,6.3
28.866008281707764,-5.13,-2.4,-0.57,5.69
28.86708116531372,-4.28,-1.86,-0.69,4.71
28.873106956481934,-2.92,-1.38,-1.08,3.4
28.88274312019348,-1.41,-0.64,-1.62,2.24
28.892120122909546,0.11,0.27,-1.94,1.96
28.916702270507812,1.55,0.94,-2.1,2.77
28.917777061462402,2.57,1.47,-2.32,3.76
28.922832012176514,3.05,2.29,-2.67,4.65
28.93296527862549,3.25,3.52,-2.86,5.57
28.94204306602478,3.83,5.06,-2.87,6.96
28.96657705307007,5.46,6.51,-3.34,9.12
28.967642068862915,7.87,7.17,-4.44,11.53
28.97311019897461,9.67,6.68,-4.69,12.65
28.982943058013916,10.42,6.06,-3.29,12.49
28.992135047912598,10.83,6.52,-1.17,12.69
29.017253160476685,10.88,7.91,-0.04,13.45
29.018323183059692,10.4,8.85,-0.58,13.66
29.022950172424316,12.09,7.54,-3.02,14.56
29.033027172088623,13.82,7.6,-3.08,16.06
29.04214096069336,15.02,6.91,-0.77,16.55
29.06643509864807,15.12,4.18,2.01,15.81
29.06751012802124,13.71,1.81,0.11,13.82
29.073063135147095,13.57,1.83,-5.15,14.62
29.082879066467285,12.43,1.35,-10.56,16.36
29.09215497970581,0.7,-1.75,-2.85,3.41
29.11611008644104,-13.88,-1.51,4.95,14.81
29.117187976837158,-18.14,4.88,-3.64,19.13
29.123300075531006,-14.29,7.52,-5.2,16.96
29.133117198944092,-2.94,7.79,4.2,9.32
29.142174243927002,7.42,8.77,17.35,20.8
29.16635012626648,16.48,7.64,4.56,18.72
29.167421102523804,17.9,3.35,-8.51,20.1
29.173266172409058,7.48,-5.33,-0.08,9.18
29.18299913406372,-1.96,-4.95,-1.32,5.48
29.192358016967773,1.45,-0.1,-6.51,6.67
29.21656894683838,5.18,2.36,-3.56,6.71
29.217637062072754,4.42,2.83,-1.66,5.5
29.223389148712158,2.68,2.22,-1.72,3.88
29.233362197875977,1.9,0.8,-0.51,2.12
29.242407083511353,0.83,-0.7,1.44,1.8
29.267166137695312,-0.21,-1.14,2.0,2.31
29.268238067626953,-0.56,-0.5,1.43,1.61
29.27340817451477,-1.37,0.12,1.11,1.76
29.283222198486328,-2.36,0.33,-0.04,2.38
29.294953107833862,-2.12,0.43,-0.87,2.33
29.317063093185425,-0.52,0.59,-0.46,0.91
29.31813097000122,1.2,0.32,0.23,1.26
29.323441982269287,1.88,-0.24,0.6,1.98
29.333354949951172,1.55,-0.52,0.91,1.87
29.342490196228027,0.25,-0.35,1.21,1.28
29.367329120635986,-0.86,-0.22,0.82,1.2
29.36839723587036,-0.85,-0.2,0.06,0.87
29.37345027923584,-0.21,-0.17,-0.31,0.41
29.383409023284912,0.04,-0.08,-0.15,0.17
29.392745971679688,0.17,-0.01,-0.22,0.27
29.41719913482666,0.21,-0.07,-0.7,0.73
29.418265104293823,0.44,-0.18,-0.88,1.0
29.423460006713867,0.67,-0.17,-0.48,0.84
29.43363118171692,0.29,-0.12,0.13,0.33
29.44269108772278,-0.57,-0.2,0.32,0.68
29.466835021972656,-1.19,-0.35,-0.12,1.24
29.467905044555664,-0.95,-0.38,-0.16,1.03
29.473523139953613,-0.42,-0.19,0.06,0.46
29.48354721069336,-0.02,-0.23,0.05,0.23
29.492781162261963,0.46,-0.2,0.02,0.5
29.516961097717285,0.99,0.16,-0.03,1.0
29.51795721054077,0.99,0.32,0.32,1.08
29.52346706390381,0.44,0.27,0.4,0.65
29.533703088760376,-0.32,0.26,0.17,0.44
29.542843103408813,-1.31,0.18,-0.11,1.32
29.567251205444336,-1.9,0.07,-0.44,1.95
29.56832504272461,-1.43,0.05,-0.24,1.45
29.573580265045166,-0.37,0.12,-0.01,0.38
29.583631992340088,0.32,0.05,0.21,0.38
29.592990159988403,0.34,-0.05,0.35,0.49
29.617070198059082,-0.08,-0.18,0.3,0.35
29.618158102035522,-0.51,-0.19,0.09,0.55
29.62352418899536,-0.57,-0.15,-0.14,0.6
29.633827209472656,-0.17,-0.2,-0.63,0.68
29.642932176589966,0.24,-0.21,-0.85,0.9
29.66734027862549,0.68,-0.03,-0.69,0.96
29.668402194976807,1.1,0.37,-0.48,1.25
29.673477172851562,1.09,0.53,-0.33,1.25
29.683861255645752,0.45,0.37,-0.13,0.59
29.693117141723633,0.0,0.28,0.3,0.41
29.717607021331787,0.07,0.18,0.33,0.38
29.718672275543213,0.4,-0.31,0.55,0.74
29.723610162734985,0.35,-0.65,0.76,1.05
29.73387312889099,0.32,-0.44,0.53,0.75
29.743072032928467,0.7,0.11,0.13,0.72
29.76736307144165,1.02,0.2,0.15,1.05
29.76842212677002,0.6,0.01,0.07,0.6
29.77362298965454,0.19,0.08,-0.6,0.63
29.783945083618164,-0.02,0.28,-0.55,0.61
29.793214082717896,-0.64,0.13,-0.46,0.79
29.81745195388794,-1.06,-0.16,-0.93,1.41
29.818527221679688,-0.62,-0.17,-0.56,0.85
29.82364010810852,0.32,-0.08,0.48,0.58
29.83404517173767,0.92,-0.19,0.74,1.19
29.843135118484497,0.66,-0.39,0.52,0.92
29.867263078689575,-0.19,-0.41,0.2,0.49
29.868332147598267,-0.6,-0.19,0.0,0.62
29.873777151107788,-0.25,0.04,-0.18,0.31
29.88410997390747,0.22,0.14,-0.12,0.28
29.89337921142578,0.01,0.05,0.01,0.05
29.917416095733643,-0.92,-0.09,0.3,0.97
29.91848111152649,-2.02,0.0,0.23,2.03
29.92386507987976,-2.47,0.21,0.06,2.47
29.934340953826904,-1.33,0.24,-0.04,1.35
29.943429946899414,0.65,0.15,-0.56,0.87
29.967836141586304,1.38,-0.08,-0.37,1.43
29.968903064727783,0.67,-0.14,-0.5,0.84
29.973971128463745,0.09,0.26,-0.9,0.94
29.9843111038208,0.11,0.32,-0.75,0.82
29.993553161621094,0.32,0.11,-0.17,0.37
30.01828098297119,0.5,0.0,0.16,0.52
