time,ax,ay,az,atotal
0.0035400390625,-0.03,-0.07,-0.15,0.16
0.005053043365478516,0.21,0.05,-0.1,0.23
0.016566991806030273,0.39,0.04,-0.02,0.39
0.024567127227783203,0.17,0.04,-0.01,0.17
0.035069942474365234,-0.13,0.13,-0.09,0.2
0.05319404602050781,-0.22,0.11,-0.11,0.26
0.054635047912597656,-0.22,-0.02,-0.12,0.25
0.06740379333496094,-0.18,-0.06,-0.21,0.28
0.07473492622375488,-0.01,0.01,-0.25,0.25
0.08536791801452637,0.21,0.04,-0.06,0.22
0.10381603240966797,0.28,0.03,0.06,0.28
0.10543298721313477,0.1,0.05,0.01,0.11
0.11735677719116211,-0.05,0.1,0.02,0.11
0.125108003616333,-0.01,0.03,0.09,0.09
0.1352248191833496,0.12,-0.16,0.09,0.21
0.15358400344848633,0.05,-0.27,-0.07,0.28
0.15507292747497559,-0.19,-0.01,-0.21,0.28
0.16743803024291992,-0.35,0.25,-0.1,0.44
0.17479610443115234,-0.19,0.22,0.09,0.3
0.18526291847229004,0.08,0.13,0.08,0.17
0.20305895805358887,0.25,0.04,0.02,0.25
0.20443010330200195,0.21,-0.14,0.02,0.25
0.21717596054077148,-0.03,-0.34,-0.07,0.34
0.22486495971679688,-0.38,-0.3,-0.16,0.5
0.23535394668579102,-0.69,-0.1,-0.11,0.7
0.2533719539642334,-0.7,0.11,0.01,0.7
0.25484395027160645,-0.45,0.15,0.19,0.51
0.26742100715637207,-0.11,0.05,0.24,0.26
0.275054931640625,0.23,-0.1,0.19,0.31
0.28537702560424805,0.24,-0.16,0.08,0.29
0.3031449317932129,-0.03,0.05,-0.19,0.19
0.30464792251586914,-0.17,0.3,-0.32,0.47
0.3174009323120117,-0.06,0.2,-0.29,0.35
0.3249359130859375,-0.01,0.0,-0.29,0.29
0.3353757858276367,-0.23,0.08,-0.28,0.37
0.3532569408416748,-0.43,0.22,-0.23,0.53
0.35475683212280273,-0.41,0.13,-0.11,0.44
0.3674750328063965,-0.3,-0.12,-0.03,0.32
0.3750479221343994,-0.17,-0.24,0.02,0.29
0.3855879306793213,-0.07,-0.29,0.07,0.3
0.4036130905151367,-0.05,-0.38,-0.08,0.39
0.4051380157470703,-0.14,-0.42,-0.22,0.49
0.4178638458251953,-0.29,-0.16,-0.35,0.48
0.4254770278930664,-0.39,0.23,-0.25,0.51
0.4357728958129883,-0.46,0.47,-0.06,0.66
0.453859806060791,-0.39,0.4,0.0,0.55
0.45536184310913086,-0.22,0.12,0.01,0.25
0.46770381927490234,-0.17,-0.15,0.06,0.23
0.4752378463745117,-0.21,-0.28,0.11,0.36
0.4857809543609619,-0.23,-0.31,0.23,0.44
0.5036759376525879,-0.32,-0.3,0.25,0.5
0.5051760673522949,-0.58,-0.38,-0.08,0.69
0.5176148414611816,-0.81,-0.51,-0.43,1.04
0.5252749919891357,-0.9,-0.43,-0.43,1.08
0.5357389450073242,-0.85,-0.13,-0.22,0.88
0.5536370277404785,-0.66,0.11,-0.08,0.67
0.5551168918609619,-0.34,0.18,0.01,0.38
0.567924976348877,0.11,0.29,0.09,0.32
0.5755038261413574,0.36,0.2,0.2,0.45
0.5859339237213135,0.17,-0.19,0.1,0.27
0.6036229133605957,-0.25,-0.43,-0.12,0.51
0.6050899028778076,-0.52,-0.27,-0.18,0.61
0.6178140640258789,-0.51,-0.02,0.06,0.51
0.6254799365997314,-0.41,0.13,0.12,0.44
0.6358389854431152,-0.3,0.12,0.24,0.4
0.6534769535064697,-0.1,0.13,0.37,0.4
0.6549580097198486,-0.03,0.25,0.43,0.49
0.6679379940032959,-0.08,0.18,0.26,0.32
0.6754989624023438,0.03,-0.29,0.16,0.33
0.6860969066619873,0.27,-0.59,0.26,0.69
0.7040038108825684,0.44,-0.37,0.4,0.7
0.7055277824401855,0.23,0.13,0.48,0.54
0.7181458473205566,-0.21,0.49,0.48,0.71
0.7257289886474609,-0.41,0.41,0.29,0.64
0.7361938953399658,-0.34,-0.03,0.2,0.39
0.7539777755737305,-0.19,-0.43,0.15,0.49
0.7554559707641602,-0.15,-0.3,0.26,0.42
0.7680931091308594,-0.21,0.26,0.54,0.63
0.7755959033966064,-0.18,0.6,0.78,1.0
0.7861349582672119,-0.06,0.31,0.9,0.95
0.8039638996124268,-0.08,-0.19,0.7,0.72
0.8054471015930176,-0.21,-0.47,0.4,0.65
0.8180038928985596,-0.24,-0.52,0.26,0.62
0.8257029056549072,-0.26,-0.2,0.33,0.46
0.8361477851867676,-0.35,0.27,0.55,0.7
0.8540678024291992,-0.42,0.4,0.72,0.92
0.8555440902709961,-0.28,0.14,0.93,0.98
0.868290901184082,0.03,-0.1,1.18,1.18
0.8758668899536133,0.42,-0.13,0.89,0.99
0.8862988948822021,0.93,-0.04,0.48,1.04
0.9040119647979736,1.46,0.22,0.48,1.55
0.9055299758911133,1.75,0.49,0.65,1.93
0.9182629585266113,1.76,0.59,0.99,2.1
0.9259390830993652,1.67,0.41,1.25,2.12
0.9363570213317871,1.52,0.17,1.22,1.95
0.9541850090026855,1.48,0.06,0.94,1.75
0.955657958984375,1.66,0.33,0.57,1.78
0.9685230255126953,1.51,1.1,0.7,1.99
0.976071834564209,0.89,1.72,0.84,2.11
0.9865639209747314,0.23,1.41,0.44,1.49
1.0042810440063477,-0.09,0.72,0.74,1.03
1.0056390762329102,0.31,0.41,0.74,0.9
1.0184710025787354,1.09,0.77,0.52,1.43
1.0265378952026367,1.79,1.55,1.76,2.95
1.0365219116210938,2.49,2.63,2.04,4.15
1.0552968978881836,3.14,3.45,1.37,4.86
1.0568838119506836,3.22,3.54,1.14,4.91
1.0691769123077393,2.45,2.96,1.23,4.03
1.0763230323791504,1.39,1.97,0.9,2.57
1.0865819454193115,0.39,1.17,0.43,1.3
1.1052649021148682,-0.22,0.97,0.38,1.06
1.1067900657653809,-0.19,1.25,1.04,1.63
1.11869478225708,-0.03,1.45,1.57,2.13
1.126338005065918,-0.26,1.37,1.38,1.96
1.1366147994995117,-0.77,1.13,1.01,1.69
1.1545610427856445,-1.15,0.86,0.76,1.62
1.1560649871826172,-1.01,0.57,0.85,1.43
1.1686809062957764,0.05,0.35,1.28,1.32
1.1762628555297852,1.45,0.18,1.75,2.27
1.1864700317382812,2.36,0.18,1.67,2.89
1.2047128677368164,3.1,0.38,1.33,3.39
1.206084966659546,4.09,0.38,1.51,4.37
1.2187469005584717,5.08,-0.04,1.99,5.45
1.2263851165771484,5.89,-0.73,2.21,6.33
1.2366938591003418,6.23,-1.36,2.01,6.68
1.2552180290222168,6.21,-1.63,1.76,6.65
1.2566838264465332,6.24,-1.67,1.66,6.66
1.2687489986419678,6.34,-1.55,1.68,6.73
1.2763190269470215,6.18,-1.37,1.64,6.53
1.2867698669433594,5.62,-1.19,1.4,5.91
1.3050661087036133,4.84,-1.03,0.81,5.01
1.306567907333374,4.13,-0.88,0.24,4.22
1.3188300132751465,3.59,-0.67,0.03,3.65
1.3264551162719727,3.04,-0.5,0.01,3.08
1.3365278244018555,2.4,-0.32,-0.13,2.42
1.354726791381836,1.68,0.03,-0.43,1.73
1.3561999797821045,0.97,0.54,-0.83,1.38
1.3688278198242188,0.19,1.1,-1.18,1.62
1.3764429092407227,-0.67,1.66,-1.32,2.22
1.3866081237792969,-1.42,2.14,-1.03,2.76
1.4047129154205322,-1.9,2.32,-0.39,3.02
1.4061908721923828,-2.17,2.12,0.05,3.03
1.4188590049743652,-2.3,1.76,0.37,2.91
1.4264919757843018,-2.39,1.32,0.69,2.81
1.436741828918457,-2.71,0.96,1.08,3.07
1.4552431106567383,-3.39,1.04,1.19,3.74
1.4567208290100098,-4.28,0.95,0.53,4.41
1.4689550399780273,-5.2,0.49,0.34,5.23
1.4765501022338867,-5.91,0.05,1.08,6.0
1.4866669178009033,-6.09,-0.55,1.8,6.37
1.5053420066833496,-6.01,-1.45,1.54,6.37
1.5067291259765625,-6.01,-2.51,0.56,6.53
1.5190119743347168,-5.92,-3.2,-0.3,6.73
1.5266571044921875,-5.93,-4.02,-1.43,7.3
1.5365920066833496,-5.99,-4.45,-2.5,7.86
1.5550439357757568,-5.96,-3.99,-6.3,9.54
1.5565381050109863,-6.37,-1.64,-12.07,13.74
1.5691518783569336,-5.61,3.01,-1.43,6.52
1.5767419338226318,0.03,10.52,15.88,19.04
1.586820125579834,4.08,12.23,5.59,14.05
1.6055850982666016,3.28,7.56,-7.9,11.41
1.6070771217346191,0.45,3.27,-11.25,11.72
1.6192209720611572,-3.64,-0.51,-6.66,7.6
1.6269609928131104,-5.37,-3.58,1.45,6.61
1.6369271278381348,-3.03,-4.61,6.42,8.46
1.6555469036102295,-0.56,-2.71,2.56,3.76
1.6570310592651367,-0.03,0.22,-3.41,3.41
1.6693849563598633,-1.71,2.49,-5.72,6.46
1.6769700050354004,-4.8,3.34,-3.99,7.07
1.6869919300079346,-5.14,2.09,-1.46,5.73
1.706054925918579,-2.57,0.04,-1.04,2.77
1.7075719833374023,-0.98,-1.29,-0.91,1.85
1.7195367813110352,-1.02,-1.32,-0.11,1.67
1.7269787788391113,-1.03,-0.44,0.79,1.37
1.7369718551635742,-0.47,0.6,1.21,1.43
1.7556259632110596,0.04,1.07,1.27,1.66
1.7570979595184326,-0.16,0.71,1.02,1.25
1.7694001197814941,-0.86,-0.03,0.39,0.94
1.7770049571990967,-1.52,-0.43,-0.24,1.59
1.7871379852294922,-1.66,-0.28,-0.43,1.73
1.8057239055633545,-0.91,0.16,-0.26,0.95
1.8072059154510498,0.25,0.54,-0.09,0.6
1.8194518089294434,1.25,0.69,-0.64,1.56
1.8270289897918701,1.74,0.55,-0.47,1.88
1.8369789123535156,1.73,0.36,0.1,1.76
1.8556900024414062,1.36,0.36,0.47,1.48
1.8571457862854004,0.8,0.37,0.49,1.0
1.869825839996338,0.46,0.02,0.26,0.52
1.8773529529571533,0.4,-0.32,0.21,0.55
1.887171983718872,0.16,-0.33,0.41,0.55
1.906013011932373,-0.14,-0.26,0.28,0.4
1.907395839691162,-0.15,-0.26,0.07,0.3
1.9197099208831787,-0.04,-0.05,0.03,0.07
1.9273900985717773,0.01,0.59,0.17,0.61
1.937114953994751,0.24,0.72,0.15,0.77
1.9561669826507568,0.49,0.27,0.1,0.56
1.9576668739318848,0.41,-0.17,0.48,0.65
1.969839096069336,0.26,-0.13,0.45,0.53
1.9774317741394043,0.14,0.21,0.59,0.64
1.987156867980957,0.16,0.47,0.66,0.82
2.00602388381958,0.46,0.66,0.71,1.07
2.0074849128723145,0.82,0.76,0.81,1.38
2.019859790802002,1.06,0.66,0.96,1.57
2.0275521278381348,1.2,0.56,1.06,1.69
2.0372090339660645,1.24,0.69,0.86,1.65
2.056623935699463,1.4,0.8,0.66,1.74
2.058126926422119,1.76,0.82,0.47,1.99
2.0700178146362305,2.15,0.87,0.57,2.38
2.077575922012329,2.53,1.19,0.73,2.88
2.0874290466308594,2.94,1.79,0.92,3.56
2.1061458587646484,3.43,2.31,0.86,4.22
2.1076009273529053,4.03,2.5,0.85,4.81
2.119907855987549,4.64,2.56,0.84,5.36
2.127676010131836,5.08,2.75,1.2,5.89
2.137518882751465,5.23,3.27,1.7,6.39
2.156467914581299,5.21,3.96,2.08,6.86
2.1579349040985107,5.15,4.81,2.45,7.46
2.169977903366089,5.31,6.43,2.74,8.77
2.17744779586792,5.91,8.52,2.74,10.72
2.1877119541168213,7.17,9.82,2.56,12.42
2.206881046295166,8.51,10.23,2.33,13.5
2.208487033843994,9.27,10.45,2.03,14.11
2.2198100090026855,8.92,11.17,1.38,14.36
2.2278149127960205,7.35,11.78,1.35,13.95
2.2375988960266113,4.56,11.26,1.32,12.21
2.256666898727417,0.86,10.53,2.2,10.79
2.258236885070801,-2.03,10.23,4.12,11.21
2.269804000854492,-3.05,10.5,4.12,11.68
2.27763295173645,-1.93,11.01,2.62,11.48
2.287722110748291,0.11,10.17,2.87,10.56
2.3064589500427246,3.05,7.57,4.36,9.25
2.3080379962921143,5.34,4.6,5.97,9.23
2.3199899196624756,5.58,1.92,6.82,9.01
2.327812910079956,4.05,0.47,6.18,7.4
2.3376851081848145,0.95,0.33,1.93,2.17
2.356520891189575,-1.46,1.01,-3.71,4.11
2.3580830097198486,-3.54,1.58,-4.88,6.23
2.3700928688049316,-4.04,1.88,0.41,4.47
2.3777318000793457,-0.35,1.42,6.14,6.31
2.3878350257873535,2.72,-0.38,8.41,8.84
2.4064559936523438,4.47,-2.2,7.75,9.21
2.4080138206481934,5.74,-3.27,6.19,9.05
2.4200921058654785,6.05,-3.65,4.88,8.58
2.427907943725586,5.46,-3.45,4.04,7.61
2.4377970695495605,4.96,-2.92,3.83,6.91
2.4565279483795166,4.64,-2.31,3.99,6.54
2.4581217765808105,4.0,-1.66,3.93,5.84
2.4702000617980957,3.21,-0.98,3.56,4.89
2.477956771850586,2.49,-0.51,2.98,3.91
2.4878969192504883,1.93,-0.52,2.65,3.31
2.506603956222534,1.61,-1.16,2.85,3.47
2.508181095123291,1.66,-2.01,3.22,4.14
2.520308017730713,1.71,-2.57,3.44,4.62
2.5280959606170654,1.37,-2.59,2.99,4.18
2.537921905517578,0.66,-2.07,2.23,3.11
2.556778907775879,-0.33,-1.32,1.77,2.23
2.5583090782165527,-1.37,-0.6,1.53,2.13
2.570457935333252,-2.34,-0.03,1.33,2.69
2.5781819820404053,-3.13,0.36,0.99,3.3
2.5881738662719727,-3.78,0.74,0.45,3.87
2.6069889068603516,-4.35,1.35,-0.17,4.55
2.6085588932037354,-4.85,2.24,-0.74,5.39
2.6205708980560303,-5.42,3.2,-1.03,6.37
2.6282520294189453,-6.16,3.86,-1.14,7.35
2.638108968734741,-7.43,4.28,-0.92,8.62
2.6570639610290527,-8.97,4.67,-0.76,10.14
2.6586008071899414,-9.9,5.04,-1.3,11.18
2.670614004135132,-10.56,5.46,-2.57,12.16
2.6782588958740234,-10.79,5.39,-4.65,12.92
2.6883530616760254,-10.82,4.69,-7.24,13.83
2.707082986831665,-11.08,4.11,-6.47,13.47
2.7086758613586426,-11.06,2.5,-3.28,11.8
2.7205138206481934,-10.25,-0.18,-3.32,10.77
2.7284140586853027,-9.11,-4.09,-5.79,11.54
2.7383389472961426,-9.65,-8.05,-6.12,13.97
2.757204055786133,-11.57,-8.67,-5.61,15.5
2.7588138580322266,-11.66,-7.27,-10.92,17.55
2.7706918716430664,-12.94,-4.44,-11.57,17.91
2.778373956680298,-15.56,-0.23,-7.27,17.17
2.788383960723877,-12.54,5.42,-1.54,13.74
2.8071560859680176,-0.42,12.48,-1.63,12.59
2.808650016784668,5.28,14.36,-9.5,18.0
2.8206748962402344,7.61,13.37,-12.11,19.57
2.8284668922424316,8.48,8.11,-7.17,13.75
2.8385848999023438,-0.36,1.71,-1.08,2.05
2.8575310707092285,-8.55,-2.22,2.77,9.25
2.859027862548828,-10.1,-4.72,2.17,11.35
2.870664119720459,-7.59,-4.64,-1.95,9.1
2.878471851348877,-3.81,-2.56,-4.92,6.72
2.888478994369507,-2.75,-0.06,-4.35,5.14
2.9071719646453857,-3.79,2.07,-3.54,5.58
2.9086859226226807,-5.33,2.61,-2.23,6.33
2.9209039211273193,-5.62,1.49,-1.95,6.13
2.928618907928467,-4.43,-0.31,-0.68,4.49
2.938568115234375,-2.61,-1.11,0.25,2.84
2.957519054412842,-0.65,-0.45,0.06,0.79
2.959059000015259,1.19,0.81,0.23,1.45
2.970822811126709,2.57,1.56,-0.28,3.01
2.978667974472046,2.22,1.22,-0.5,2.58
2.988672971725464,0.2,0.23,-0.04,0.3
3.0073108673095703,-1.48,-0.43,0.06,1.54
3.0088388919830322,-2.21,-0.52,0.17,2.27
3.020993947982788,-2.19,-0.3,0.14,2.21
3.028870105743408,-1.56,0.05,0.13,1.56
3.03898286819458,-0.61,0.37,0.49,0.86
3.0583038330078125,0.33,0.75,0.0,0.81
3.0597898960113525,1.17,1.14,-0.42,1.68
3.071286916732788,1.66,1.31,-0.6,2.19
3.078892946243286,1.53,1.07,-0.04,1.86
3.0890088081359863,1.19,0.52,0.75,1.49
3.108107089996338,0.88,0.01,0.65,1.09
3.1095659732818604,0.6,-0.33,0.79,1.04
3.121335983276367,0.42,-0.6,1.02,1.25
3.1290760040283203,0.28,-0.7,1.08,1.31
3.1391100883483887,0.33,-0.63,1.14,1.34
3.1585628986358643,0.74,-0.42,0.89,1.23
3.160050868988037,1.07,-0.01,0.75,1.3
3.17124080657959,1.23,0.49,0.53,1.42
3.179166793823242,1.3,0.77,0.63,1.63
3.1893367767333984,1.56,0.8,0.72,1.89
3.208293914794922,1.96,0.66,1.01,2.3
3.209746837615967,2.45,0.62,1.0,2.71
3.221510887145996,2.91,0.76,0.97,3.16
3.2291998863220215,3.4,1.11,1.09,3.73
3.2391810417175293,3.87,1.79,1.26,4.44
3.2583260536193848,4.16,2.69,1.46,5.16
3.2597861289978027,4.44,3.29,1.51,5.72
3.271541118621826,4.88,3.48,1.44,6.16
3.2791500091552734,5.4,3.55,1.35,6.6
3.2892708778381348,5.69,3.94,1.21,7.02
3.3083128929138184,5.98,4.9,1.38,7.85
3.3097710609436035,6.58,6.24,2.0,9.28
3.321542978286743,7.31,7.94,2.74,11.13
3.329352855682373,7.55,10.34,3.06,13.16
3.3392279148101807,7.64,12.92,3.0,15.3
3.3583199977874756,8.3,14.24,2.56,16.67
3.3597869873046875,8.68,13.9,2.15,16.52
3.371674060821533,7.67,13.19,2.67,15.48
3.37961483001709,4.85,13.38,3.01,14.54
3.389439105987549,1.12,13.56,4.19,14.23
3.408613920211792,-1.47,13.31,4.84,14.23
3.4100818634033203,-1.07,12.8,4.02,13.45
3.4217748641967773,0.29,10.93,2.76,11.27
3.429457902908325,2.03,8.61,3.24,9.42
3.439487934112549,4.07,6.25,4.94,8.94
3.4583330154418945,5.66,3.87,6.48,9.43
3.4598679542541504,5.57,2.39,6.71,9.04
3.4718728065490723,2.46,1.83,2.86,4.19
3.479525089263916,-0.84,1.94,-3.27,3.89
3.4896278381347656,-3.0,2.11,-6.2,7.2
3.5086188316345215,-4.65,2.03,-2.23,5.54
3.5100820064544678,-1.2,1.6,4.96,5.34
3.521826982498169,2.87,-0.13,9.17,9.6
3.529604911804199,4.37,-2.17,8.83,10.08
3.539544105529785,5.04,-3.4,6.2,8.68
3.5585670471191406,5.5,-3.76,3.81,7.67
3.5600271224975586,5.36,-3.62,2.02,6.77
3.572093963623047,5.14,-3.13,1.22,6.14
3.579681873321533,5.35,-2.46,1.57,6.09
3.5896730422973633,5.43,-1.9,2.02,6.09
3.608677864074707,5.19,-1.63,1.93,5.77
3.610140800476074,4.79,-1.6,1.23,5.19
3.622169017791748,4.31,-1.74,0.55,4.68
3.629796028137207,3.78,-2.02,0.4,4.3
3.639801025390625,3.37,-2.35,0.63,4.15
3.6589930057525635,3.07,-2.58,0.81,4.09
3.6604859828948975,2.83,-2.61,0.47,3.87
3.6721079349517822,2.45,-2.43,-0.47,3.48
3.6797170639038086,1.76,-2.14,-1.44,3.12
3.69002103805542,0.8,-1.82,-2.07,2.87
3.7090210914611816,-0.2,-1.49,-2.33,2.77
3.710488796234131,-0.96,-1.01,-2.17,2.57
3.722032070159912,-1.52,-0.12,-2.17,2.65
3.729940891265869,-2.08,1.27,-2.87,3.76
3.740032911300659,-3.18,3.02,-3.75,5.77
3.7594118118286133,-5.14,4.66,-4.68,8.36
3.7609291076660156,-7.43,5.53,-5.46,10.75
3.7722220420837402,-10.11,5.76,-5.14,12.72
3.7799909114837646,-12.63,5.64,-3.7,14.31
3.790019989013672,-14.26,5.75,-2.88,15.64
3.8088059425354004,-15.18,5.84,-4.07,16.76
3.8102829456329346,-15.04,5.06,-7.75,17.65
3.8221778869628906,-12.7,4.59,-7.46,15.42
3.8300018310546875,-10.32,3.15,-2.94,11.18
3.839963912963867,-7.79,-0.28,-3.55,8.56
3.859160900115967,-5.58,-5.4,-5.08,9.27
3.8606390953063965,-7.09,-9.72,-5.34,13.16
3.8723089694976807,-11.79,-10.86,-9.02,18.39
3.880129814147949,-14.92,-8.41,-11.59,20.68
3.890223979949951,-20.31,-1.63,-0.33,20.37
3.9094319343566895,-15.35,6.83,10.05,19.57
3.91090989112854,-1.81,14.49,-2.28,14.77
3.9228270053863525,3.17,16.28,-10.84,19.81
3.9302477836608887,3.88,15.87,-10.55,19.44
3.9401559829711914,-0.55,9.57,-8.8,13.01
3.9591989517211914,-8.88,1.82,-6.46,11.13
3.9606668949127197,-11.56,-3.21,-1.88,12.14
3.972561836242676,-7.79,-5.76,-0.04,9.68
3.9802908897399902,-2.46,-5.81,-0.22,6.31
3.9903788566589355,0.47,-3.76,-1.52,4.08
4.009654998779297,0.44,-0.28,-1.84,1.91
4.011148929595947,-2.1,2.62,-1.61,3.72
4.022511959075928,-4.91,4.54,-3.55,7.57
4.030319929122925,-6.55,3.56,-2.12,7.75
4.04030704498291,-6.61,0.35,-0.95,6.68
4.059773921966553,-5.07,-2.31,-0.94,5.65
4.061275959014893,-3.27,-2.77,-0.51,4.31
4.0726470947265625,-1.83,-1.16,-0.03,2.16
4.080406904220581,-0.47,0.79,-0.27,0.95
4.090446949005127,0.79,1.86,-0.45,2.07
4.109696865081787,1.32,1.66,-0.3,2.14
4.111184120178223,0.45,0.63,-0.4,0.87
4.122864007949829,-0.59,-0.32,-0.4,0.78
4.130588054656982,-1.07,-0.62,-0.5,1.33
4.140530109405518,-1.04,-0.09,-0.59,1.19
4.160135984420776,-0.62,0.61,-0.31,0.92
4.161617994308472,-0.02,0.99,-0.22,1.01
4.173149108886719,0.48,1.02,0.19,1.14
4.180578947067261,0.88,0.81,0.7,1.38
4.190610885620117,1.19,0.56,0.78,1.52
4.210071086883545,1.16,0.4,0.99,1.57
4.211544036865234,1.07,0.2,1.06,1.51
4.223059892654419,1.19,-0.25,1.04,1.6
4.230808973312378,1.21,-0.75,1.21,1.86
4.240732908248901,1.09,-1.17,1.01,1.89
4.260126113891602,0.83,-1.25,0.67,1.64
4.261590957641602,0.4,-0.8,0.47,1.01
4.273113965988159,0.16,-0.18,0.33,0.4
4.280643939971924,0.22,0.18,0.02,0.28
4.290534973144531,0.45,0.4,0.02,0.6
4.30984091758728,1.07,0.46,0.25,1.19
4.311301946640015,1.97,0.38,0.5,2.06
4.322986125946045,2.71,0.28,0.57,2.78
4.3307390213012695,3.23,0.42,0.46,3.28
4.340617895126343,3.61,0.95,0.35,3.74
4.360026836395264,3.84,1.86,0.44,4.28
4.361476898193359,4.04,2.75,0.56,4.91
4.373178958892822,4.15,3.29,0.77,5.35
4.38060188293457,4.38,3.51,1.19,5.73
4.390635013580322,4.78,3.75,1.53,6.26
4.411037921905518,5.44,4.1,1.49,6.97
4.412489891052246,6.32,4.52,1.54,7.92
4.422884941101074,7.32,5.19,2.03,9.19
4.43077278137207,8.42,6.35,1.91,10.71
4.4406819343566895,9.64,7.87,1.42,12.52
4.4601149559021,10.59,10.31,1.02,14.81
4.461611986160278,11.03,13.48,0.41,17.42
4.473217010498047,11.39,15.09,-0.16,18.9
4.48081111907959,8.7,13.63,0.09,16.17
4.490822792053223,4.71,12.17,2.12,13.22
4.509964942932129,0.18,13.44,4.2,14.08
4.511439800262451,-4.13,15.09,6.16,16.81
4.5232768058776855,-4.96,14.7,6.4,16.78
4.530961036682129,-2.38,12.64,3.9,13.44
4.541157960891724,0.77,11.08,2.99,11.5
4.560238838195801,4.0,9.35,5.13,11.39
4.561723947525024,6.97,6.34,6.94,11.7
4.57326602935791,6.98,3.37,7.97,11.11
4.5810418128967285,4.36,1.94,6.51,8.07
4.59110689163208,0.08,1.49,0.75,1.67
4.61024284362793,-2.5,1.64,-4.92,5.75
4.611702919006348,-3.97,1.36,-4.6,6.22
4.623342990875244,-2.01,1.05,2.24,3.18
4.631036996841431,1.93,-0.23,9.03,9.23
4.6411027908325195,3.54,-2.31,10.37,11.19
4.660262107849121,4.37,-3.91,7.88,9.82
4.661726951599121,5.26,-4.62,5.42,8.85
4.673629999160767,5.3,-4.87,3.35,7.93
4.6811981201171875,4.67,-4.67,1.94,6.88
4.691349029541016,4.16,-4.06,2.08,6.17
4.710675954818726,3.6,-3.43,3.06,5.83
4.712134838104248,2.92,-2.81,3.38,5.27
4.723589897155762,2.24,-2.32,3.0,4.4
4.731343984603882,1.6,-2.26,2.46,3.7
4.741281986236572,1.13,-2.44,2.12,3.42
4.760495901107788,0.9,-2.64,2.14,3.51
4.7619569301605225,0.85,-2.61,2.25,3.54
4.773669958114624,0.93,-2.4,2.07,3.3
4.781351089477539,0.85,-2.22,1.39,2.75
4.791393995285034,0.49,-2.06,0.59,2.19
4.810821056365967,-0.1,-1.83,0.08,1.83
4.812295913696289,-0.81,-1.32,-0.14,1.55
4.823781967163086,-1.58,-0.32,-0.22,1.62
4.831501007080078,-2.55,1.26,-0.58,2.9
4.841624975204468,-3.65,3.42,-1.32,5.17
4.86090087890625,-4.81,5.54,-2.34,7.7
4.862380027770996,-6.4,6.56,-3.07,9.66
4.873950958251953,-8.96,6.2,-2.94,11.28
4.881603956222534,-11.83,5.41,-2.13,13.18
4.891781806945801,-13.74,5.42,-2.07,14.91
4.9111008644104,-14.71,6.19,-3.37,16.31
4.91257381439209,-13.91,5.88,-5.9,16.21
4.923933982849121,-11.64,4.92,-8.17,15.04
4.931700944900513,-9.92,4.21,-5.51,12.1
4.941738128662109,-8.46,1.77,-2.26,8.93
4.961194038391113,-6.39,-2.06,-5.66,8.78
4.962673902511597,-5.99,-6.66,-7.92,11.95
4.973988056182861,-9.31,-9.82,-6.09,14.83
4.9816460609436035,-13.58,-8.38,-6.24,17.13
4.991764068603516,-14.1,-5.63,-9.99,18.17
5.011376857757568,-15.92,-3.29,-13.82,21.33
5.0128560066223145,-21.22,-0.3,-4.47,21.68
5.024115085601807,-15.11,4.72,4.71,16.51
5.0318639278411865,-1.49,11.41,-1.96,11.67
5.04213809967041,3.73,13.08,-11.7,17.94
5.0619189739227295,5.73,14.97,-15.91,22.58
5.063515901565552,8.09,13.44,-10.14,18.67
5.0738677978515625,2.05,5.64,-2.76,6.6
5.081614971160889,-5.22,-1.35,1.89,5.71
5.091772079467773,-4.18,-5.3,1.34,6.88
5.111608028411865,-0.85,-6.21,-0.79,6.31
5.113109111785889,-0.6,-4.73,-2.24,5.26
5.1241068840026855,-2.5,-2.39,-1.93,3.96
5.131891965866089,-5.0,0.45,-1.01,5.12
5.141848087310791,-7.65,3.48,-2.58,8.79
5.161706924438477,-9.24,3.55,-2.29,10.15
5.163200855255127,-8.74,0.62,-1.51,8.89
5.174097061157227,-5.46,-2.2,-1.08,5.98
5.181989908218384,-2.44,-2.42,-0.74,3.51
5.19205379486084,-0.24,-0.66,-0.72,1.0
5.211516857147217,1.56,1.52,-0.95,2.37
5.213007926940918,2.76,2.63,-1.17,3.98
5.22414493560791,2.15,1.82,-0.91,2.96
5.2320709228515625,0.04,0.33,-0.32,0.46
5.241997003555298,-1.65,-0.71,-0.05,1.79
5.2619569301605225,-2.71,-1.03,-0.13,2.9
5.263431072235107,-2.98,-0.65,-0.19,3.05
5.274075031280518,-2.3,0.09,-0.52,2.35
5.2820799350738525,-0.96,0.7,-0.48,1.28
5.292159080505371,0.58,1.1,-0.37,1.29
5.312891006469727,1.76,1.32,-0.2,2.2
5.314352989196777,2.35,1.22,0.11,2.65
5.324181079864502,2.35,0.82,1.11,2.72
5.33224892616272,2.1,0.26,1.65,2.68
5.34226393699646,1.69,-0.13,1.59,2.32
5.361927032470703,1.1,-0.35,1.71,2.06
5.363409042358398,0.7,-0.54,1.81,2.01
5.374178886413574,0.89,-0.73,1.5,1.89
5.382300853729248,1.1,-0.63,1.04,1.63
5.392331123352051,0.98,-0.45,0.74,1.3
5.411956787109375,0.91,-0.13,0.29,0.96
5.413419961929321,1.07,0.63,0.17,1.25
5.424158096313477,1.66,1.21,0.15,2.05
5.432374954223633,2.4,1.17,0.23,2.67
5.442319869995117,2.85,0.88,0.35,3.0
5.462090969085693,3.14,0.73,0.19,3.22
5.463562965393066,3.22,1.07,0.23,3.4
5.4743359088897705,3.34,1.84,0.31,3.82
5.4823219776153564,3.64,2.69,0.47,4.55
5.492372989654541,4.22,3.22,0.83,5.37
5.5118818283081055,5.04,3.33,1.23,6.16
5.51334810256958,5.9,3.34,1.79,7.01
5.524353981018066,6.69,3.67,2.2,7.94
5.532588958740234,7.16,4.68,2.48,8.9
5.542614936828613,7.56,6.37,2.52,10.2
5.562745094299316,8.2,8.59,1.9,12.02
5.5642218589782715,8.93,11.47,1.01,14.57
5.574697971343994,9.69,14.09,0.06,17.1
5.582756996154785,9.41,14.6,-0.32,17.37
5.5927958488464355,7.8,13.37,1.28,15.53
5.612607002258301,5.46,12.44,2.02,13.73
5.614084959030151,2.33,13.17,4.05,13.97
5.624659061431885,-0.69,13.77,6.01,15.04
5.632635116577148,-1.68,13.2,6.14,14.65
5.64267110824585,-0.5,11.77,4.37,12.56
5.662101984024048,0.99,10.04,2.58,10.41
5.663559913635254,2.9,8.3,3.57,9.48
5.674755096435547,5.29,5.85,5.83,9.8
5.682675838470459,6.45,3.15,7.73,10.54
5.692827939987183,5.33,1.43,7.51,9.31
5.712597846984863,1.91,0.81,2.39,3.16
5.714069843292236,-0.82,1.37,-4.74,5.0
5.724581956863403,-2.86,1.6,-7.16,7.87
5.732792854309082,-3.52,1.41,-1.42,4.04
5.7429518699646,0.44,0.89,6.5,6.57
5.762886047363281,3.3,-1.13,9.83,10.43
5.76435399055481,4.25,-3.28,8.38,9.95
5.774720907211304,5.02,-4.41,5.54,8.67
5.782796859741211,5.43,-4.71,3.34,7.92
5.792840003967285,5.1,-4.51,1.87,7.06
5.81216287612915,4.86,-3.89,1.53,6.41
5.813630104064941,4.94,-3.17,2.15,6.25
5.82494592666626,4.69,-2.49,2.66,5.93
5.832986831665039,4.0,-1.98,2.3,5.02
5.84291410446167,3.3,-1.93,1.45,4.08
5.862504959106445,2.89,-2.25,0.85,3.75
5.863970994949341,2.75,-2.62,0.7,3.86
5.874867916107178,2.77,-2.94,0.87,4.13
5.883020877838135,2.8,-3.13,0.85,4.28
5.8945088386535645,2.41,-3.03,0.3,3.88
5.912373065948486,1.6,-2.59,-0.56,3.09
5.913841962814331,0.58,-1.99,-1.21,2.4
5.924978971481323,-0.56,-1.33,-1.47,2.05
5.933107852935791,-1.76,-0.59,-1.5,2.38
5.943233013153076,-2.73,0.42,-1.54,3.16
5.963030815124512,-3.56,1.82,-1.94,4.44
5.964491844177246,-4.74,3.45,-2.72,6.46
5.975322008132935,-6.33,4.94,-3.92,8.93
5.983099937438965,-8.21,5.69,-5.35,11.33
5.993288993835449,-10.49,5.54,-5.48,13.06
6.012995958328247,-12.72,5.05,-3.69,14.17
6.014474868774414,-14.26,5.16,-1.99,15.29
6.025070905685425,-14.36,5.8,-2.81,15.73
6.033194065093994,-11.8,5.7,-6.14,14.47
6.043181896209717,-10.13,5.01,-8.6,14.2
6.062556982040405,-9.64,3.78,-5.63,11.78
6.0640199184417725,-9.01,0.86,-2.85,9.48
6.07525110244751,-7.91,-3.52,-5.51,10.26
6.083293914794922,-8.74,-7.79,-6.87,13.57
6.093423843383789,-12.13,-9.53,-7.42,17.11
6.1130290031433105,-14.29,-7.83,-10.27,19.26
6.1144959926605225,-19.16,-1.79,-6.04,20.16
6.12532377243042,-19.33,4.68,7.01,21.08
6.133400917053223,-4.69,10.94,-0.27,11.9
6.143821954727173,2.88,12.1,-12.88,17.9
6.163487911224365,3.89,13.11,-15.76,20.86
6.164959907531738,6.7,12.1,-11.63,18.07
6.175458908081055,4.63,5.35,-3.69,7.97
6.183445930480957,-3.97,-1.21,3.43,5.38
6.193656921386719,-7.03,-4.86,2.82,8.99
6.212975978851318,-5.18,-5.41,-2.26,7.82
6.214437007904053,-3.02,-3.27,-3.33,5.55
6.225547790527344,-2.33,-0.26,-1.56,2.81
6.233499050140381,-3.21,2.08,-0.76,3.89
6.243645906448364,-5.03,2.55,-2.22,6.06
6.263149976730347,-6.91,1.98,-3.83,8.14
6.264614105224609,-7.41,0.12,-2.11,7.7
6.275557041168213,-5.8,-1.82,-0.02,6.07
6.283514976501465,-3.13,-2.26,0.45,3.88
6.293648958206177,-0.89,-0.96,0.4,1.36
6.313514947891235,1.28,1.05,0.09,1.65
6.314976930618286,3.03,2.37,-0.28,3.85
6.325639009475708,2.63,1.96,0.1,3.28
6.333643913269043,0.49,0.39,-0.11,0.63
6.343787908554077,-1.31,-0.73,-0.24,1.51
6.363832950592041,-2.31,-1.03,-0.22,2.53
6.3653059005737305,-2.48,-0.63,0.01,2.55
6.375764846801758,-1.97,-0.01,0.19,1.97
6.383613109588623,-1.17,0.43,0.11,1.25
6.39385986328125,-0.09,0.54,-0.14,0.56
6.413428783416748,0.99,0.58,-0.02,1.14
6.41488790512085,1.59,0.74,0.06,1.75
6.425736904144287,1.39,0.87,0.14,1.64
6.433767795562744,0.93,0.75,0.63,1.35
6.443828105926514,0.73,0.43,0.45,0.95
6.463599920272827,0.62,0.15,0.36,0.73
6.46505880355835,0.5,-0.02,0.35,0.61
6.475840091705322,0.5,-0.26,0.27,0.62
6.483828067779541,0.54,-0.47,0.14,0.72
6.4939470291137695,0.64,-0.44,0.09,0.78
6.513747930526733,0.79,-0.32,0.19,0.87
6.515247821807861,0.96,-0.16,0.23,1.0
6.525871992111206,1.09,0.24,0.42,1.19
6.533921003341675,1.28,0.71,0.59,1.57
6.543950080871582,1.65,0.78,0.75,1.97
6.5634918212890625,2.1,0.45,0.56,2.21
6.564961910247803,2.46,0.26,0.49,2.52
6.576095104217529,2.86,0.54,0.62,2.97
6.583889961242676,3.35,1.46,0.71,3.72
6.594204902648926,3.9,2.43,0.55,4.62
6.6137590408325195,4.19,3.0,0.81,5.21
6.615226984024048,4.33,3.28,1.37,5.6
6.625983953475952,4.78,3.65,1.71,6.25
6.6339898109436035,5.54,4.08,1.82,7.11
6.644053936004639,6.23,4.46,2.0,7.91
6.663934946060181,6.68,5.3,2.21,8.8
6.665390968322754,7.04,6.99,2.16,10.15
6.6763389110565186,7.55,9.69,1.89,12.42
6.684252977371216,8.42,12.61,1.53,15.23
6.6945037841796875,9.61,13.96,0.85,16.96
6.7139058113098145,10.39,13.21,0.45,16.81
6.715369939804077,10.01,12.2,1.08,15.81
6.726170063018799,8.05,12.01,1.27,14.51
6.734247922897339,4.56,12.93,2.62,13.95
6.7443108558654785,0.06,13.97,5.05,14.85
6.764153003692627,-2.74,13.26,6.16,14.87
6.765620946884155,-2.31,11.23,4.41,12.28
6.776287078857422,-0.99,9.57,3.11,10.11
6.78433084487915,0.73,7.88,4.49,9.09
6.7943830490112305,3.2,5.17,6.61,8.98
6.814327001571655,3.97,2.55,6.5,8.03
6.815777778625488,2.87,1.09,5.13,5.97
6.8262939453125,0.29,0.99,-0.1,1.03
6.834410905838013,-1.85,1.66,-4.61,5.23
6.844429969787598,-3.36,1.68,-3.24,4.96
6.863977909088135,-0.5,1.63,3.22,3.64
6.86543607711792,3.58,0.22,8.68,9.39
6.8764519691467285,4.96,-2.07,8.99,10.47
6.8843629360198975,5.21,-3.8,6.57,9.2
6.894566059112549,5.44,-4.65,4.33,8.36
6.914891004562378,5.07,-4.94,2.64,7.55
6.916358947753906,4.2,-4.75,2.01,6.65
6.926558017730713,3.75,-4.23,2.75,6.28
6.934538841247559,3.36,-3.78,3.64,6.23
6.944585800170898,2.71,-3.44,3.84,5.82
6.964502811431885,2.1,-3.31,3.25,5.09
6.965972900390625,1.8,-3.5,2.23,4.52
6.976612091064453,2.02,-3.8,1.61,4.59
6.984604835510254,2.45,-3.87,1.68,4.87
6.994789123535156,2.85,-3.72,2.27,5.2
7.014600992202759,2.95,-3.28,2.85,5.25
7.016066074371338,2.57,-2.71,2.56,4.52
7.0267109870910645,1.86,-2.11,1.72,3.29
7.034593105316162,0.92,-1.55,1.18,2.15
7.044716835021973,-0.12,-0.99,0.9,1.34
7.064929962158203,-1.17,-0.4,0.69,1.41
7.066411018371582,-2.19,0.56,0.38,2.29
7.076711893081665,-3.14,2.16,-0.04,3.81
7.084671974182129,-4.19,4.31,-0.85,6.07
7.094919919967651,-5.74,6.37,-2.15,8.84
7.114588975906372,-7.82,7.53,-3.96,11.55
7.116058826446533,-10.24,7.49,-5.26,13.73
7.126750946044922,-12.53,6.86,-4.67,15.02
7.134864807128906,-14.7,6.14,-2.78,16.17
7.144952774047852,-16.23,4.94,-2.55,17.15
7.164999008178711,-14.01,3.39,-6.22,15.69
7.1664838790893555,-10.22,2.83,-9.38,14.15
7.176862001419067,-9.18,2.61,-6.96,11.81
7.184822082519531,-8.8,1.26,-3.15,9.43
7.195024013519287,-7.82,-1.82,-4.34,9.12
7.2152180671691895,-8.16,-6.29,-8.45,13.32
7.216706991195679,-11.13,-9.65,-8.14,16.83
7.226943016052246,-14.02,-9.75,-7.49,18.64
7.23486590385437,-14.26,-7.1,-12.31,20.13
7.245006084442139,-17.0,-0.79,-8.9,19.2
7.264983892440796,-12.23,5.14,9.03,16.04
7.2664549350738525,0.07,11.44,4.61,12.33
7.277310848236084,5.04,14.15,-10.08,18.08
7.285156965255737,7.53,14.79,-14.02,21.72
7.295006990432739,8.38,12.96,-9.65,18.2
7.3149800300598145,-0.2,6.34,-3.2,7.1
7.316448926925659,-8.63,0.1,1.24,8.71
7.327024936676025,-8.44,-4.62,1.37,9.71
7.335082054138184,-4.14,-6.22,-0.56,7.49
7.345078945159912,-1.86,-5.54,-2.03,6.18
7.365384101867676,-1.47,-3.68,-3.5,5.28
7.36687707901001,-3.77,-0.54,-3.59,5.23
7.377202033996582,-6.27,2.87,-2.43,7.31
7.38506293296814,-7.44,4.07,-2.65,8.88
7.395341873168945,-7.68,2.42,-3.24,8.67
7.415096998214722,-6.35,-0.64,-1.62,6.58
7.416572093963623,-3.89,-2.0,-1.03,4.49
7.427103042602539,-1.48,-1.17,-1.09,2.17
7.435193061828613,0.54,0.5,-0.54,0.91
7.445375919342041,2.35,1.79,-0.19,2.96
7.465634822845459,2.85,1.83,-0.3,3.4
7.467094898223877,1.35,0.75,-0.02,1.54
7.477169036865234,-0.58,-0.31,0.06,0.66
7.485145092010498,-1.91,-0.68,0.1,2.02
7.4954118728637695,-2.47,-0.5,0.16,2.52
7.515130043029785,-2.11,-0.07,-0.1,2.11
7.51659893989563,-1.09,0.33,-0.17,1.15
7.52724289894104,0.2,0.63,-0.21,0.69
7.535388946533203,1.41,0.92,0.06,1.68
7.545547962188721,2.1,1.0,0.32,2.34
7.565555095672607,2.24,0.8,0.7,2.47
7.567016124725342,2.03,0.46,1.38,2.49
7.577384948730469,1.68,0.09,1.81,2.47
7.585336923599243,1.47,-0.15,1.39,2.02
7.595358848571777,1.2,-0.17,1.04,1.59
7.61539888381958,0.95,-0.13,0.9,1.31
7.6168599128723145,0.91,-0.15,0.37,0.99
7.62739896774292,0.89,-0.27,0.03,0.93
7.6354498863220215,0.55,-0.21,-0.05,0.59
7.645503044128418,0.41,0.09,0.01,0.41
7.665563106536865,0.86,0.54,0.35,1.07
7.667019844055176,1.73,0.86,0.65,2.03
7.677469968795776,2.49,1.13,0.56,2.79
7.685482025146484,3.07,1.44,0.42,3.41
7.695594787597656,3.36,1.9,0.31,3.87
7.715725898742676,3.74,2.46,0.46,4.5
7.7171831130981445,4.19,3.08,0.55,5.22
7.727561950683594,4.64,3.54,0.88,5.9
7.735743999481201,5.1,3.93,1.18,6.54
7.745751857757568,5.83,4.23,1.0,7.27
7.765667915344238,6.68,4.57,1.14,8.17
7.767129898071289,7.62,5.4,1.66,9.48
7.7776618003845215,8.43,6.96,1.87,11.09
7.785635948181152,9.07,9.17,2.0,13.05
7.795892000198364,9.54,12.02,1.62,15.43
7.816495895385742,9.2,15.09,0.57,17.68
7.817976951599121,8.86,16.04,0.88,18.34
7.827739000320435,8.68,12.87,1.31,15.57
7.835829973220825,5.99,11.61,2.72,13.34
7.8459179401397705,1.88,13.18,5.27,14.31
7.86611795425415,-1.12,14.09,5.75,15.25
7.867599010467529,-1.78,12.97,4.43,13.82
7.877816915512085,-0.74,11.12,2.76,11.48
7.885799884796143,0.54,9.68,2.94,10.13
7.895998001098633,2.89,7.49,5.18,9.55
7.916627883911133,5.84,4.33,6.5,9.75
7.918097019195557,5.92,2.12,7.0,9.4
7.927881956100464,3.39,1.3,4.2,5.55
7.935948848724365,-0.03,1.81,-3.16,3.64
7.9459710121154785,-2.63,2.28,-6.5,7.37
7.965933799743652,-3.26,1.94,-1.42,4.05
7.967411994934082,1.64,1.23,6.63,6.93
7.978008985519409,5.16,-0.98,9.94,11.24
7.986196041107178,5.93,-3.39,7.86,10.41
7.996172904968262,6.48,-4.66,4.8,9.31
8.016628980636597,6.77,-4.9,2.49,8.72
8.018109798431396,5.84,-4.62,0.65,7.47
8.028289794921875,4.79,-3.9,0.28,6.18
8.036147117614746,4.22,-3.13,1.13,5.37
8.046437978744507,3.67,-2.66,1.89,4.91
8.066658973693848,3.23,-2.61,1.92,4.57
8.068136930465698,2.99,-2.78,1.44,4.32
8.078233003616333,2.81,-2.99,0.99,4.22
8.08625078201294,2.47,-3.21,1.05,4.18
8.096249103546143,2.11,-3.15,1.14,3.95
8.116672039031982,2.07,-2.86,0.82,3.62
8.118157863616943,2.17,-2.42,-0.13,3.25
8.128154993057251,1.97,-1.84,-1.1,2.91
8.13621997833252,1.34,-1.16,-1.86,2.56
8.14634895324707,0.51,-0.51,-2.34,2.44
8.16671085357666,-0.33,0.22,-2.31,2.34
8.16818380355835,-1.1,1.3,-2.19,2.77
8.178282976150513,-1.93,2.62,-2.53,4.12
8.186264038085938,-3.11,3.94,-3.36,6.04
8.196453094482422,-4.91,4.85,-4.35,8.15
8.216310977935791,-7.33,5.13,-5.21,10.35
8.217782974243164,-9.57,4.92,-5.38,12.03
8.228235006332397,-11.65,5.09,-4.68,13.54
8.236279010772705,-13.4,5.41,-4.13,15.02
8.246304035186768,-14.76,5.64,-4.47,16.42
8.266464948654175,-14.45,5.46,-6.02,16.57
8.26796293258667,-11.79,4.13,-8.26,14.97
8.278429985046387,-10.94,2.9,-6.52,13.06
8.286333084106445,-10.26,1.56,-3.52,10.95
8.296591997146606,-8.3,-1.23,-3.65,9.15
8.316749095916748,-6.58,-5.28,-6.02,10.36
8.31823205947876,-8.54,-8.11,-7.82,14.13
8.328454971313477,-12.63,-8.0,-7.74,16.83
8.336569786071777,-14.05,-5.87,-8.41,17.39
8.34648084640503,-17.1,-1.2,-9.92,19.8
8.366868019104004,-19.95,3.84,8.09,21.86
8.368344783782959,-5.37,9.55,9.27,14.35
8.378777027130127,3.75,12.27,-8.41,15.34
8.386746883392334,5.68,11.84,-14.92,19.87
8.396838903427124,7.43,10.9,-12.55,18.2
8.416953086853027,3.71,6.48,-5.5,9.27
8.41844892501831,-5.52,2.97,-0.01,6.26
8.428518772125244,-10.08,0.11,1.46,10.18
8.436713933944702,-8.24,-2.57,-1.44,8.75
8.44682502746582,-4.43,-3.8,-2.7,6.43
8.467175960540771,-2.06,-3.41,-1.31,4.19
8.468658924102783,-1.94,-1.31,-0.89,2.5
8.478682041168213,-3.68,0.76,-1.87,4.19
8.486681938171387,-5.35,2.28,-1.64,6.04
8.49689793586731,-5.26,2.05,-1.51,5.84
8.517319917678833,-4.28,0.39,-0.88,4.38
8.518793106079102,-3.38,-0.79,-0.07,3.47
8.52867078781128,-2.4,-0.89,-0.31,2.57
8.536900997161865,-0.78,-0.2,-0.17,0.82
8.546763896942139,1.13,0.81,-0.12,1.39
8.567529916763306,2.4,1.44,0.0,2.79
8.569008827209473,2.34,1.28,0.22,2.67
8.578917026519775,0.86,0.51,-0.11,1.0
8.586813926696777,-0.61,-0.3,-0.32,0.75
8.597080945968628,-1.6,-0.72,-0.17,1.76
8.617344856262207,-2.1,-0.82,-0.21,2.26
8.618828773498535,-1.93,-0.62,-0.13,2.03
8.628843784332275,-1.18,-0.29,-0.12,1.22
8.636992931365967,-0.19,0.04,-0.17,0.25
8.646937847137451,0.83,0.31,-0.16,0.9
8.667638778686523,1.45,0.42,0.33,1.54
8.669125080108643,1.75,0.41,0.57,1.88
8.681221008300781,1.61,0.34,0.54,1.73
8.68684196472168,1.15,0.26,1.26,1.72
8.697336912155151,0.79,0.1,0.98,1.26
8.7172269821167,0.7,-0.11,0.32,0.77
8.718723773956299,0.62,-0.29,0.08,0.68
8.728981971740723,0.53,-0.24,-0.13,0.59
8.737049102783203,0.5,-0.13,-0.18,0.54
8.746982097625732,0.39,0.12,-0.05,0.41
8.767498016357422,0.49,0.64,0.06,0.8
8.768971920013428,0.96,1.11,0.24,1.48
8.779149055480957,1.7,1.26,0.37,2.14
8.787086009979248,2.45,1.36,0.52,2.85
8.797302961349487,3.26,1.46,0.73,3.64
8.817813873291016,3.84,1.76,0.8,4.29
8.819304943084717,4.14,2.03,0.78,4.67
8.829246997833252,4.12,2.16,1.16,4.79
8.837212085723877,3.78,2.34,1.46,4.67
8.847303867340088,3.77,2.79,1.37,4.88
8.86785078048706,4.57,3.2,1.14,5.69
8.869330883026123,5.44,3.61,0.68,6.56
8.879326820373535,5.81,4.45,0.9,7.37
8.887205123901367,6.31,5.77,1.28,8.64
8.897461891174316,6.97,7.57,1.63,10.41
8.917475938796997,7.48,9.9,1.66,12.51
8.919084072113037,8.44,11.8,1.26,14.56
8.929625988006592,9.45,12.53,0.61,15.7
8.937642097473145,8.94,13.15,0.2,15.9
8.947840929031372,7.06,14.86,1.14,16.49
8.967768907546997,4.71,16.74,0.42,17.39
8.969244956970215,4.29,14.15,1.84,14.9
8.97952389717102,3.16,12.16,5.34,13.65
8.987401008605957,1.83,11.49,5.6,12.91
8.997554779052734,1.51,10.79,3.16,11.34
9.017469882965088,1.73,9.61,2.08,9.98
9.01892900466919,3.36,7.27,3.3,8.66
9.029539108276367,5.42,4.34,4.95,8.52
9.037528038024902,5.73,1.9,6.1,8.58
9.047591924667358,3.74,1.39,4.46,5.98
9.06826400756836,0.65,1.96,-1.51,2.55
9.06975793838501,-1.99,2.33,-4.8,5.69
9.07959794998169,-4.33,1.42,-1.2,4.71
9.08752989768982,-1.8,0.54,4.32,4.71
9.097681999206543,2.84,-0.95,7.26,7.85
9.117770910263062,5.41,-2.9,6.9,9.23
9.119247913360596,6.53,-4.06,5.06,9.2
9.129658937454224,6.84,-4.43,3.28,8.78
9.137724876403809,6.09,-4.32,2.05,7.74
9.147809028625488,4.97,-3.96,1.59,6.55
9.168174982070923,4.24,-3.57,1.88,5.85
9.169650077819824,3.7,-3.28,2.44,5.51
9.179781913757324,3.24,-3.03,2.72,5.2
9.187774896621704,2.88,-2.85,2.27,4.64
9.197868824005127,2.58,-2.9,1.46,4.14
9.217773914337158,2.49,-3.09,1.04,4.1
9.219244003295898,2.5,-3.23,1.12,4.23
9.229769945144653,2.48,-3.23,1.56,4.36
9.237934112548828,2.35,-2.98,1.81,4.2
9.248077869415283,2.05,-2.55,1.23,3.49
9.26783299446106,1.62,-2.03,0.13,2.6
9.269300937652588,0.85,-1.47,-0.55,1.78
9.280043125152588,-0.12,-0.83,-0.89,1.22
9.287925004959106,-1.14,0.04,-1.12,1.59
9.297985076904297,-2.02,1.38,-1.42,2.82
9.318068027496338,-2.8,3.25,-1.98,4.72
9.319532871246338,-3.9,5.3,-2.96,7.21
9.329945087432861,-5.69,6.73,-4.38,9.84
9.338107109069824,-8.05,7.13,-5.31,11.99
9.34805679321289,-10.68,6.73,-4.79,13.5
9.368268966674805,-12.77,6.2,-2.83,14.47
9.369735956192017,-14.18,6.06,-2.37,15.6
9.38004207611084,-13.82,5.81,-5.21,15.87
9.387999057769775,-12.28,5.14,-9.41,16.3
9.398056983947754,-12.27,4.42,-8.33,15.47
9.41798210144043,-11.98,2.36,-3.59,12.72
9.419450998306274,-10.72,-1.51,-5.09,11.96
9.430047035217285,-9.32,-6.22,-8.76,14.22
9.43812084197998,-10.58,-8.95,-7.27,15.64
9.448030948638916,-12.7,-8.09,-8.9,17.49
9.467928886413574,-14.18,-5.39,-13.08,20.03
9.469400882720947,-19.47,-0.3,-3.77,19.83
9.48006296157837,-13.4,4.62,14.81,20.49
9.487948894500732,-0.48,11.55,1.83,11.7
9.498336791992188,3.63,12.69,-14.55,19.64
9.518225908279419,5.92,13.27,-15.12,20.97
9.519707918167114,7.54,10.72,-7.76,15.23
9.530138969421387,0.57,3.78,-0.16,3.82
9.53821086883545,-6.49,-0.16,3.15,7.21
9.548219919204712,-8.58,-2.5,-0.34,8.94
9.568184852600098,-7.84,-3.66,-4.44,9.72
9.569658994674683,-5.35,-3.47,-4.03,7.54
9.580337047576904,-3.33,-1.68,-0.99,3.85
9.588222026824951,-3.43,0.45,-1.32,3.7
9.598344802856445,-4.38,1.97,-3.01,5.66
9.618196964263916,-4.87,2.83,-3.29,6.52
9.619657039642334,-4.8,1.64,-2.15,5.5
9.630294799804688,-4.5,-0.52,-0.53,4.56
9.638362884521484,-4.18,-1.62,-0.59,4.52
9.64832592010498,-3.14,-1.49,-0.15,3.47
9.668208122253418,-1.34,-0.25,0.04,1.36
9.669680118560791,0.61,1.07,-0.12,1.23
9.680490016937256,1.96,1.79,-0.14,2.65
9.688302040100098,1.69,1.45,0.07,2.22
9.698486804962158,0.41,0.35,0.03,0.53
9.71806812286377,-0.67,-0.54,-0.28,0.9
9.719547986984253,-1.12,-0.81,-0.14,1.38
9.73042893409729,-0.93,-0.46,0.14,1.04
9.738461971282959,-0.48,0.06,0.08,0.49
9.74861478805542,0.06,0.33,0.18,0.38
9.768265008926392,0.71,0.21,0.43,0.85
9.769731998443604,1.23,-0.01,0.22,1.24
9.780631065368652,1.34,-0.1,0.32,1.38
9.788470983505249,1.08,0.07,0.59,1.23
9.798573017120361,0.96,0.26,0.75,1.24
9.818482875823975,1.17,0.31,1.03,1.58
9.819933891296387,1.3,0.24,1.24,1.81
9.830559968948364,1.15,0.01,0.82,1.41
9.838640928268433,0.91,-0.25,0.23,0.97
9.848838806152344,0.68,-0.33,0.01,0.75
9.868549823760986,0.4,-0.14,-0.19,0.46
9.870019912719727,0.19,0.35,-0.33,0.51
9.880702018737793,0.32,0.81,-0.22,0.89
9.88861608505249,0.82,0.97,-0.16,1.28
9.898926973342896,1.39,0.95,0.05,1.68
9.918625831604004,2.0,0.88,0.1,2.18
9.920084953308105,2.58,0.95,0.04,2.74
9.930774927139282,2.95,1.47,0.33,3.31
9.938788890838623,3.18,2.25,0.46,3.92
9.948887825012207,3.45,2.71,0.54,4.42
9.9686279296875,3.86,2.74,0.8,4.8
9.970082998275757,4.34,2.7,1.19,5.24
9.980762958526611,4.72,3.06,1.55,5.83
9.988696098327637,5.19,3.85,1.81,6.71
9.999007940292358,5.68,5.01,2.4,7.94
10.018868923187256,6.39,6.61,2.8,9.61
10.020328044891357,7.16,8.82,2.79,11.69
10.030911922454834,8.02,11.49,2.68,14.26
10.039631843566895,9.03,13.39,2.05,16.27
10.049304008483887,9.35,13.8,0.89,16.69
10.068551063537598,8.2,13.61,1.14,15.93
10.070024013519287,6.82,13.2,1.4,14.92
10.081238985061646,4.93,13.72,1.75,14.68
10.08901309967041,1.68,15.3,3.17,15.71
10.098984956741333,0.5,13.99,3.8,14.5
10.118814945220947,2.11,10.12,4.07,11.1
10.120291948318481,2.3,8.15,3.84,9.29
10.130975008010864,2.18,7.12,3.66,8.29
10.139051914215088,2.99,5.82,4.81,8.12
10.149020910263062,4.78,3.24,6.97,9.05
10.168466091156006,4.82,1.86,6.73,8.48
10.16991400718689,2.04,1.52,2.73,3.73
10.181123971939087,-0.86,1.47,-2.67,3.16
10.189098834991455,-3.07,1.12,-3.02,4.44
10.199225902557373,-2.21,0.78,1.37,2.71
10.218993902206421,2.11,0.06,5.59,5.97
10.22046184539795,5.38,-1.64,6.89,8.89
10.231132984161377,6.94,-3.11,5.86,9.6
10.239300966262817,6.99,-3.92,3.99,8.95
10.249269962310791,5.89,-4.16,2.37,7.59
10.269073009490967,4.55,-3.96,1.53,6.22
10.270550966262817,3.65,-3.57,1.52,5.32
10.281291007995605,3.29,-3.29,2.11,5.1
10.289340019226074,2.95,-3.19,2.62,5.07
10.299355030059814,2.55,-3.19,2.66,4.87
10.319339990615845,2.23,-3.27,2.18,4.51
10.320817947387695,2.12,-3.51,1.72,4.44
10.331226825714111,2.43,-3.72,1.72,4.76
10.339401960372925,2.8,-3.8,1.97,5.11
10.349545955657959,2.94,-3.65,2.34,5.23
10.369262933731079,2.9,-3.28,2.18,4.89
10.370726108551025,2.57,-2.73,1.31,3.97
10.381446838378906,1.97,-1.96,0.43,2.81
10.389398097991943,1.33,-1.12,0.06,1.73
10.399479866027832,0.37,-0.3,0.0,0.47
10.419562816619873,-0.88,0.48,-0.08,1.0
10.42103910446167,-2.02,1.6,-0.33,2.59
10.431555986404419,-2.94,3.3,-0.89,4.5
10.439571857452393,-4.02,5.48,-1.83,7.03
10.449569940567017,-5.62,7.47,-3.22,9.88
10.469260931015015,-7.8,8.22,-4.78,12.29
10.47074294090271,-10.43,8.02,-5.14,14.12
10.481611967086792,-12.64,7.64,-3.77,15.24
10.489490985870361,-14.56,7.15,-2.85,16.46
10.499674797058105,-15.62,6.15,-4.05,17.26
10.519746780395508,-13.9,4.32,-8.74,16.97
10.521234035491943,-12.47,2.88,-9.58,15.98
10.531659126281738,-11.98,1.14,-5.69,13.31
10.540101051330566,-10.49,-1.09,-5.56,11.92
10.549827098846436,-9.15,-4.35,-8.31,13.1
10.569329977035522,-10.24,-7.17,-9.09,15.45
10.570811986923218,-12.16,-7.62,-10.72,17.91
10.581705093383789,-13.51,-3.6,-13.55,19.47
10.589768886566162,-16.24,3.43,-7.7,18.29
10.599889993667603,-9.57,9.54,6.85,15.14
10.619930982589722,2.13,12.99,0.51,13.17
10.621412992477417,5.31,13.56,-10.97,18.23
10.631832122802734,6.65,13.53,-9.51,17.82
10.640270948410034,2.35,6.97,-2.48,7.76
10.64989709854126,-6.97,0.16,1.78,7.19
10.669380903244019,-10.51,-4.49,2.13,11.62
10.670850992202759,-9.46,-6.68,-0.53,11.59
10.681818008422852,-6.45,-5.71,-4.28,9.61
10.689786911010742,-4.05,-3.21,-5.3,7.4
10.699950933456421,-3.86,0.19,-3.42,5.16
10.71950101852417,-4.61,3.48,-2.72,6.38
10.72097897529602,-4.66,4.51,-2.69,7.02
10.731902122497559,-3.64,2.73,-3.6,5.8
10.740356922149658,-2.51,-0.19,-1.42,2.89
10.750098943710327,-1.83,-1.53,1.13,2.63
10.7703537940979,-0.86,-1.3,1.26,2.0
10.771842956542969,0.68,-0.26,0.84,1.11
10.782095909118652,1.99,0.89,0.29,2.19
10.79030704498291,1.81,1.33,-0.47,2.29
10.800037860870361,0.21,0.89,-0.52,1.05
10.819808006286621,-1.31,0.0,-0.27,1.33
10.821273803710938,-2.02,-0.79,-0.37,2.2
10.832045078277588,-1.87,-0.86,-0.21,2.06
10.84045696258545,-1.02,-0.31,-0.11,1.07
10.850160121917725,0.07,0.28,-0.17,0.33
10.869701862335205,0.84,0.54,-0.14,1.0
10.871165990829468,1.32,0.48,-0.04,1.4
10.882215976715088,1.44,0.3,0.1,1.47
10.890545845031738,1.17,0.18,0.36,1.23
10.900345802307129,0.84,0.16,0.33,0.91
10.920320987701416,0.61,0.11,0.39,0.73
10.921792984008789,0.49,-0.08,0.53,0.72
10.932530879974365,0.48,-0.31,0.54,0.78
10.940662860870361,0.44,-0.39,0.65,0.87
10.950130939483643,0.28,-0.23,0.7,0.78
10.970155000686646,0.15,0.08,0.42,0.45
10.971635818481445,0.23,0.41,-0.13,0.48
10.982381820678711,0.37,0.52,-0.16,0.65
10.990603923797607,0.76,0.5,0.05,0.91
11.000304937362671,1.25,0.5,0.17,1.35
11.02005910873413,1.75,0.48,0.27,1.83
11.02153205871582,2.21,0.52,0.39,2.3
11.032299995422363,2.61,0.79,0.65,2.8
11.040904998779297,3.1,1.39,0.93,3.52
11.050565958023071,3.62,2.0,0.96,4.24
11.070233821868896,3.92,2.34,1.12,4.7
11.071698904037476,3.88,2.48,1.24,4.76
11.08252477645874,3.8,2.52,1.41,4.77
11.090664863586426,3.96,2.61,1.44,4.95
11.100472927093506,4.39,2.95,1.35,5.45
11.120083808898926,4.93,3.44,1.18,6.12
11.121541976928711,5.4,4.39,1.5,7.11
11.132483005523682,6.16,5.79,2.15,8.72
11.140837907791138,7.19,7.72,2.38,10.81
11.150738954544067,8.16,10.2,2.29,13.26
11.170333862304688,9.1,12.33,1.96,15.44
11.171808004379272,9.24,13.07,1.26,16.05
11.182939052581787,8.19,12.85,1.62,15.32
11.191221952438354,6.87,12.26,1.77,14.16
11.200862884521484,4.72,13.03,2.13,14.02
11.220346927642822,1.68,14.74,3.55,15.25
11.221816062927246,0.01,14.86,3.89,15.36
11.232679843902588,1.24,12.11,3.55,12.68
11.241064071655273,3.32,9.21,3.52,10.4
11.250727891921997,3.97,7.86,3.6,9.51
11.270256042480469,4.87,6.41,4.53,9.23
11.27171802520752,5.89,3.81,6.1,9.29
11.282786846160889,5.63,1.57,6.83,8.98
11.291074991226196,2.67,0.69,4.87,5.59
11.30085802078247,-1.61,0.56,-1.31,2.14
11.320425987243652,-4.28,1.31,-6.6,7.97
11.321907043457031,-6.85,0.64,-3.04,7.52
11.332744121551514,-5.42,-0.66,5.97,8.09
11.341162919998169,1.54,-1.41,10.49,10.69
11.350848913192749,4.77,-3.41,8.74,10.52
11.371109008789062,5.94,-4.96,5.42,9.44
11.37258005142212,7.02,-5.47,3.5,9.56
11.382884979248047,7.06,-5.41,2.28,9.18
11.391304016113281,6.42,-4.88,1.91,8.28
11.400845050811768,5.89,-4.14,2.56,7.64
11.420748949050903,5.36,-3.67,3.38,7.32
11.422230005264282,4.44,-3.33,3.66,6.64
11.432939052581787,3.28,-3.01,3.0,5.36
11.441373825073242,2.19,-2.97,1.93,4.16
11.4510498046875,1.41,-3.11,1.46,3.71
11.470952033996582,1.08,-3.3,1.75,3.88
11.472410917282104,0.99,-3.34,2.16,4.09
11.482952117919922,0.79,-3.14,2.1,3.85
11.491123914718628,0.41,-2.71,1.6,3.17
11.501121997833252,-0.07,-2.22,0.98,2.42
11.520863056182861,-0.7,-1.53,0.52,1.76
11.522332906723022,-1.43,-0.53,0.12,1.52
11.532992839813232,-2.22,0.83,-0.19,2.37
11.541441917419434,-3.06,2.49,-0.31,3.95
11.55118989944458,-3.92,4.29,-0.6,5.84
11.571090936660767,-5.09,6.08,-1.25,8.02
11.572560787200928,-7.04,7.47,-2.18,10.49
11.583209037780762,-9.92,8.3,-2.65,13.2
11.591535091400146,-12.93,8.42,-2.15,15.57
11.601342916488647,-15.13,8.37,-1.27,17.33
11.621129035949707,-15.43,7.41,-2.78,17.34
11.622604846954346,-12.95,5.76,-6.91,15.76
11.633177995681763,-11.1,5.36,-7.3,14.32
11.641786098480225,-11.36,3.42,-4.31,12.62
11.651278018951416,-10.25,-0.65,-5.56,11.67
11.671096801757812,-8.09,-5.61,-9.86,13.93
11.672571897506714,-9.23,-9.76,-8.71,16.0
11.683385848999023,-13.35,-9.4,-7.01,17.76
11.691675901412964,-15.84,-5.61,-8.77,18.95
11.701455116271973,-16.81,-3.71,-9.9,19.85
11.721266984939575,-19.41,0.34,-7.62,20.85
11.722723007202148,-12.95,3.4,5.57,14.5
11.733320951461792,-0.29,7.35,-1.0,7.42
11.741683006286621,3.1,9.39,-12.06,15.59
11.751752853393555,5.9,10.98,-16.61,20.76
11.770928859710693,10.12,12.29,-13.59,20.93
11.772397994995117,10.34,10.16,-1.98,14.63
11.78346300125122,-0.94,4.83,4.66,6.77
11.791683912277222,-6.72,-0.43,1.29,6.85
11.80148983001709,-5.96,-3.3,-3.13,7.49
11.821038961410522,-3.59,-4.07,-1.43,5.61
11.822508811950684,-2.83,-3.47,-0.14,4.47
11.833407878875732,-4.24,-1.53,-1.43,4.72
11.84175992012024,-5.32,0.8,-3.55,6.44
11.851481914520264,-5.65,1.74,-2.3,6.34
11.871170043945312,-5.8,1.72,-1.76,6.3
11.87266206741333,-5.01,0.4,-0.52,5.05
11.883692979812622,-3.38,-0.54,-0.44,3.45
11.89191198348999,-1.05,-0.46,-1.01,1.52
11.90169382095337,0.84,0.35,-1.41,1.67
11.921624898910522,1.59,1.24,-0.75,2.15
11.923105001449585,1.19,1.05,-0.41,1.63
11.933650970458984,0.01,0.09,-0.65,0.65
11.94201397895813,-1.19,-0.57,-0.43,1.38
11.951756954193115,-2.01,-0.69,-0.06,2.12
11.971825122833252,-2.11,-0.46,0.19,2.16
11.97328495979309,-1.56,-0.16,-0.14,1.57
11.983835935592651,-0.74,0.09,-0.43,0.86
11.992158889770508,0.15,0.33,-0.67,0.76
12.00182294845581,0.99,0.73,-0.58,1.35
12.02119779586792,1.52,1.14,-0.1,1.9
12.022668838500977,1.8,1.19,0.28,2.17
12.033869981765747,1.59,0.95,0.59,1.94
12.042113780975342,1.28,0.51,1.28,1.88
12.051898002624512,1.05,-0.02,1.19,1.58
12.071672916412354,0.9,-0.35,0.86,1.29
12.073133945465088,0.94,-0.51,0.88,1.38
12.08387804031372,1.06,-0.35,0.54,1.24
12.09239387512207,0.84,0.31,-0.03,0.89
12.1019868850708,0.6,1.05,-0.32,1.25
12.121720790863037,0.71,1.17,-0.28,1.39
12.1231849193573,1.1,0.82,0.15,1.38
12.133825778961182,1.71,0.46,0.55,1.85
12.142221927642822,2.21,0.37,0.73,2.35
12.151941776275635,2.3,0.53,0.74,2.47
12.171440124511719,2.22,0.87,0.72,2.49
12.172907829284668,2.41,1.29,0.71,2.82
12.184144020080566,2.93,1.92,0.48,3.53
12.192348003387451,3.67,2.57,0.46,4.5
12.20219612121582,4.46,2.98,0.67,5.4
12.222097873687744,5.09,3.1,1.09,6.05
12.223567008972168,5.64,3.19,1.46,6.64
12.234232902526855,6.06,3.72,1.59,7.28
12.24243688583374,6.34,5.01,1.95,8.31
12.252033948898315,6.69,7.06,2.66,10.08
12.271624088287354,7.18,9.81,3.09,12.54
12.273101806640625,7.95,11.94,2.8,14.61
12.284580945968628,8.32,12.92,2.52,15.57
12.29286003112793,8.46,12.81,2.67,15.58
12.302485942840576,7.86,12.37,1.93,14.78
12.322011947631836,5.65,12.7,1.6,13.99
12.323493957519531,2.36,13.28,2.05,13.64
12.334203958511353,0.17,13.25,2.49,13.48
12.342657089233398,1.06,11.98,2.27,12.23
12.352199077606201,2.76,9.74,1.86,10.29
12.372119903564453,4.11,7.14,2.4,8.58
12.373572826385498,5.0,4.93,4.16,8.16
12.384292125701904,5.86,2.81,5.44,8.47
12.392674922943115,6.0,1.42,5.37,8.17
12.4024178981781,3.61,1.08,2.83,4.71
12.42214298248291,0.04,0.95,-1.94,2.16
12.423616886138916,-2.54,0.96,-3.36,4.32
12.434446811676025,-1.57,0.48,0.39,1.68
12.44275689125061,2.51,-0.22,4.7,5.33
12.452445030212402,5.28,-1.75,5.7,7.96
12.472219944000244,6.17,-3.14,4.45,8.22
12.473703861236572,6.33,-3.89,2.78,7.93
12.484421968460083,6.25,-4.1,1.38,7.6
12.492804050445557,6.13,-3.95,0.38,7.3
12.502383947372437,6.2,-3.58,0.16,7.16
12.521898984909058,6.37,-3.23,0.37,7.15
12.523353099822998,6.16,-2.8,0.19,6.76
12.53449010848999,5.66,-2.65,-0.37,6.26
12.542811870574951,5.18,-2.88,-0.79,5.97
12.552522897720337,4.76,-3.17,-0.84,5.78
12.571815013885498,4.39,-3.4,-0.88,5.62
12.573301792144775,4.16,-3.42,-1.01,5.47
12.584688901901245,3.94,-3.1,-1.31,5.18
12.592870950698853,3.72,-2.55,-1.69,4.81
12.602717876434326,3.38,-1.93,-2.01,4.38
12.622101783752441,2.67,-1.31,-2.19,3.69
12.623572826385498,1.65,-0.8,-2.31,2.94
12.63471794128418,0.47,-0.25,-2.4,2.45
12.643013000488281,-0.67,0.57,-2.43,2.58
12.652738094329834,-1.57,1.84,-2.72,3.63
12.672028064727783,-2.33,3.55,-3.07,5.23
12.673497915267944,-3.34,5.39,-3.33,7.16
12.68473196029663,-5.0,6.73,-3.9,9.24
12.692989826202393,-7.09,7.2,-4.26,10.96
12.702768802642822,-9.75,7.97,-3.48,13.06
12.721928119659424,-11.86,9.38,-0.85,15.14
12.72340202331543,-11.67,9.0,-2.79,14.99
12.734943866729736,-12.24,6.79,-6.52,15.44
12.74317193031311,-12.82,5.2,-6.62,15.33
12.752880096435547,-13.97,3.68,-4.17,15.03
12.772567987442017,-13.84,0.86,-2.71,14.12
12.77406096458435,-11.35,-2.62,-5.16,12.74
12.7848539352417,-9.48,-5.85,-8.27,13.87
12.793083906173706,-10.28,-7.22,-10.28,16.23
12.802977085113525,-11.06,-6.06,-12.91,18.04
12.822007894515991,-12.88,-1.26,-15.8,20.42
12.823484897613525,-19.94,5.18,-1.05,20.62
12.835068941116333,-12.8,12.29,14.06,22.63
12.843521118164062,0.18,16.39,-2.44,16.57
12.852858066558838,2.39,14.14,-10.23,17.61
12.872020959854126,-0.93,6.07,-9.02,10.91
12.873496055603027,-6.59,-1.01,-3.45,7.5
12.885213851928711,-8.7,-6.19,3.7,11.3
12.893495082855225,-6.04,-7.46,1.35,9.69
12.903223037719727,-2.78,-4.65,-5.38,7.63
12.922546863555908,-1.43,-0.19,-5.32,5.51
12.92405080795288,-1.82,3.92,-2.45,4.96
12.935265064239502,-2.95,5.1,-2.42,6.36
12.943674087524414,-3.8,3.42,-4.04,6.51
12.95317792892456,-4.03,0.86,-1.94,4.55
12.972883939743042,-3.48,-1.3,0.51,3.74
12.974369049072266,-2.58,-2.09,0.54,3.36
12.985198020935059,-1.29,-1.4,0.71,2.03
12.993499994277954,-0.24,-0.18,0.22,0.37
13.003250122070312,0.13,0.78,-0.07,0.79
13.022449016571045,0.04,0.96,-0.15,0.97
13.023929119110107,-0.37,0.45,-0.13,0.59
13.03530502319336,-0.56,-0.27,-0.29,0.68
13.04378890991211,-0.61,-0.53,-0.54,0.97
13.053303003311157,-0.51,-0.28,-0.61,0.84
13.072397947311401,-0.32,0.14,-0.64,0.72
13.073853015899658,-0.07,0.4,-0.31,0.51
13.085462093353271,0.34,0.38,0.19,0.54
13.093692779541016,0.82,0.31,0.41,0.96
13.103464126586914,1.04,0.19,0.31,1.1
13.122700929641724,0.9,0.03,0.3,0.94
13.124156951904297,0.6,-0.15,0.6,0.86
13.135357856750488,0.5,-0.4,1.08,1.25
13.143867015838623,0.66,-0.65,1.22,1.53
13.153445959091187,0.68,-0.59,0.74,1.16
13.172924995422363,0.4,-0.03,0.14,0.42
13.174406051635742,0.36,0.54,-0.49,0.81
13.185474872589111,0.7,0.47,-0.81,1.16
13.193810939788818,0.85,-0.01,-0.66,1.07
13.203679084777832,0.72,-0.34,0.0,0.79
13.222896099090576,0.69,-0.31,0.52,0.91
13.224355936050415,0.78,0.07,0.86,1.16
13.23556399345398,1.1,0.6,0.87,1.52
13.244000911712646,1.67,1.0,0.38,1.98
13.253565788269043,2.21,1.21,0.34,2.54
13.272893905639648,2.61,1.19,0.2,2.87
13.27434778213501,2.78,1.0,0.24,2.96
13.285622119903564,2.75,0.86,0.36,2.9
13.293871879577637,2.5,1.08,0.42,2.75
13.303692817687988,2.24,1.58,0.83,2.86
13.323153972625732,2.38,2.25,0.82,3.37
13.324606895446777,3.07,2.79,0.42,4.16
13.335622787475586,4.01,2.88,0.25,4.94
13.34408712387085,4.7,3.11,0.11,5.63
13.353718996047974,5.09,4.06,0.04,6.51
13.373053073883057,5.58,5.64,0.03,7.93
13.374520778656006,6.26,7.71,0.44,9.94
13.385737895965576,7.32,9.62,0.16,12.08
13.39412784576416,8.41,10.68,0.25,13.59
13.403750896453857,8.42,11.04,0.68,13.9
13.422992944717407,7.03,11.51,0.56,13.49
13.424479007720947,4.81,12.64,0.58,13.53
13.435944080352783,2.55,13.62,1.45,13.93
13.44420599937439,1.06,13.16,2.59,13.45
13.453783988952637,1.07,11.88,3.26,12.36
13.47368597984314,2.46,10.18,3.82,11.14
13.475152015686035,2.52,9.11,3.19,9.97
13.485815048217773,2.7,8.1,3.31,9.15
13.494133949279785,4.84,5.71,4.95,8.97
13.504035949707031,6.86,2.42,6.06,9.46
13.52327299118042,6.71,-0.15,5.84,8.89
13.524728775024414,4.39,-0.37,2.46,5.04
13.535907983779907,1.97,-0.2,-0.68,2.09
13.544342994689941,-0.12,0.2,-0.06,0.24
13.554032802581787,0.17,0.03,2.9,2.9
13.573402881622314,3.24,-1.15,5.17,6.2
13.574863910675049,6.18,-3.03,5.72,8.94
13.586041927337646,6.81,-4.33,4.7,9.33
13.594352006912231,5.51,-4.4,3.32,7.79
13.604119777679443,4.26,-3.99,2.08,6.19
13.623498916625977,3.91,-3.45,1.32,5.37
13.624960899353027,3.7,-3.06,1.78,5.12
13.636198997497559,3.03,-2.8,2.7,4.93
13.644390106201172,2.36,-2.9,2.83,4.68
13.654261112213135,2.26,-3.09,2.51,4.57
13.673718929290771,2.69,-2.77,2.19,4.43
13.675201892852783,3.19,-2.06,2.04,4.31
13.686147928237915,3.28,-1.37,1.82,3.99
13.694423913955688,2.74,-0.82,0.92,3.0
13.704317092895508,1.79,-0.57,0.0,1.87
13.72339677810669,0.85,-0.56,-0.09,1.02
13.724867820739746,0.12,-0.57,0.62,0.85
13.736353874206543,-0.5,-0.47,1.25,1.42
13.744647979736328,-1.27,-0.08,1.07,1.66
13.754421949386597,-2.1,0.6,0.55,2.25
13.773735046386719,-2.79,1.48,-0.19,3.16
13.77520489692688,-3.43,2.38,-1.16,4.33
13.786309003829956,-4.11,3.14,-1.68,5.43
13.794557094573975,-5.02,3.86,-1.76,6.57
13.804383993148804,-6.41,4.44,-1.79,8.0
13.823434829711914,-8.15,4.81,-1.78,9.62
13.824903964996338,-9.68,5.19,-1.73,11.11
13.83642292022705,-10.44,5.93,-1.96,12.16
13.844810962677002,-10.54,6.39,-3.2,12.73
13.854426860809326,-10.17,5.64,-4.63,12.51
13.873656988143921,-9.58,4.48,-4.37,11.44
13.875133991241455,-9.69,3.3,-3.74,10.89
13.886416912078857,-9.95,1.55,-3.18,10.56
13.894725799560547,-9.39,-0.65,-3.45,10.02
13.9044349193573,-8.05,-3.17,-5.78,10.4
13.923557996749878,-8.84,-5.58,-6.83,12.48
13.925028800964355,-12.74,-5.95,-5.93,15.26
13.93662405014038,-15.66,-5.45,-6.28,17.73
13.944983005523682,-15.5,-4.07,-8.8,18.28
13.954615116119385,-16.28,-0.54,-10.03,19.12
13.973939895629883,-13.26,3.75,-5.62,14.88
13.9753999710083,-2.81,8.42,1.91,9.07
13.986856937408447,4.28,12.74,-2.18,13.61
13.995199918746948,5.75,14.38,-8.68,17.75
14.004590034484863,6.25,11.42,-8.03,15.29
14.024058818817139,-1.13,3.65,-4.1,5.6
14.02554988861084,-7.49,-1.77,-0.66,7.72
14.036800861358643,-6.94,-5.06,0.05,8.58
14.045126914978027,-3.05,-4.9,-0.79,5.82
14.054850101470947,-0.44,-2.51,-2.31,3.43
14.073935985565186,-0.53,0.43,-3.37,3.43
14.075403928756714,-1.88,2.25,-1.75,3.41
14.08670711517334,-3.92,2.51,-1.48,4.88
14.095200061798096,-5.64,1.78,-1.77,6.17
14.104785919189453,-6.16,0.07,-0.28,6.16
14.124093055725098,-4.69,-1.5,0.34,4.93
14.125557899475098,-2.21,-1.55,0.11,2.7
14.136783123016357,0.07,-0.46,0.03,0.46
14.145118951797485,1.57,0.83,0.08,1.77
14.154774904251099,1.77,1.47,-0.1,2.3
14.173898935317993,0.83,0.95,-0.31,1.29
14.175386905670166,-0.28,0.0,-0.37,0.46
14.186957836151123,-0.91,-0.57,-0.42,1.15
14.195322036743164,-1.05,-0.65,-0.22,1.25
14.205096960067749,-0.96,-0.46,-0.19,1.08
14.224337100982666,-0.9,-0.11,-0.42,0.99
14.225813865661621,-0.44,0.01,-0.74,0.86
14.237037897109985,0.09,0.08,-0.71,0.72
14.245399951934814,0.55,0.31,-0.56,0.84
14.255105972290039,1.05,0.48,-0.63,1.31
14.273839950561523,1.27,0.31,-0.17,1.31
14.27531385421753,0.86,-0.02,-0.09,0.86
14.28728699684143,0.14,-0.39,0.28,0.5
14.295508861541748,-0.36,-0.59,0.68,0.96
14.305311918258667,-0.41,-0.52,0.63,0.91
14.324378967285156,-0.23,-0.27,0.55,0.65
14.325845956802368,-0.06,-0.08,0.56,0.56
14.337090969085693,0.02,-0.01,0.27,0.27
14.345510005950928,0.07,-0.14,0.02,0.15
14.355227947235107,0.06,-0.33,0.24,0.41
14.374390125274658,0.14,-0.32,0.27,0.44
14.37586498260498,0.42,-0.08,0.17,0.46
14.387311935424805,0.77,0.22,0.08,0.8
14.395509004592896,1.1,0.45,-0.16,1.19
14.405219078063965,1.43,0.55,-0.21,1.54
14.424052953720093,1.71,0.67,-0.21,1.84
14.42552900314331,1.99,0.75,-0.17,2.13
14.43740701675415,2.37,0.89,0.05,2.53
14.445603847503662,2.83,1.17,0.12,3.06
14.455302000045776,3.44,1.05,0.53,3.63
14.474823951721191,3.69,1.37,0.86,4.02
14.476280927658081,4.22,2.3,0.01,4.8
14.487383842468262,5.54,2.99,-0.8,6.34
14.49559497833252,6.2,3.82,-1.73,7.48
14.505559921264648,6.94,4.49,-1.84,8.46
14.524582862854004,7.68,5.52,-1.88,9.64
14.526044845581055,8.07,7.57,-2.21,11.28
14.537303924560547,9.11,9.47,-1.64,13.24
14.545702934265137,8.38,9.19,-1.97,12.59
14.555231094360352,3.86,7.97,-2.5,9.2
14.574302911758423,0.13,8.46,-1.45,8.58
14.575779914855957,-3.07,9.47,0.2,9.95
14.587542057037354,-6.36,9.61,1.78,11.66
14.595813989639282,-8.51,8.39,3.32,12.4
14.605466842651367,-6.95,6.43,3.41,10.06
14.624624967575073,-3.23,5.68,1.7,6.75
14.62609577178955,0.21,4.87,2.8,5.62
14.637484073638916,3.45,2.8,5.19,6.83
14.645864009857178,6.21,-1.28,4.9,8.01
14.655561923980713,6.99,-2.35,4.73,8.76
14.674324989318848,6.25,-2.06,6.18,9.02
14.675794124603271,3.58,-0.27,5.37,6.45
14.687656879425049,5.24,0.98,5.53,7.68
14.69583511352539,8.43,-0.3,5.42,10.02
14.70561695098877,7.93,-1.21,4.18,9.04
14.724740982055664,5.02,-1.38,4.05,6.59
14.726197957992554,2.93,-1.73,5.04,6.08
14.737782001495361,2.11,-2.28,5.81,6.58
14.746112823486328,2.24,-2.19,5.61,6.42
14.755649089813232,2.63,-1.83,4.85,5.81
14.7744619846344,2.91,-1.43,4.23,5.32
14.775929927825928,2.86,-1.15,4.02,5.06
14.787873983383179,2.34,-1.06,4.06,4.8
14.796080112457275,1.47,-1.14,3.97,4.38
14.805749893188477,0.61,-1.18,3.63,3.86
14.824585914611816,0.03,-0.97,3.1,3.24
14.826064109802246,-0.35,-0.51,2.87,2.93
14.837942123413086,-0.77,0.07,2.8,2.9
14.846159934997559,-1.35,0.5,2.65,3.01
14.85575795173645,-2.27,0.61,2.48,3.41
14.8748779296875,-3.39,0.47,2.3,4.12
14.876353979110718,-4.64,0.45,2.0,5.07
14.887855052947998,-6.01,0.53,1.58,6.23
14.896141052246094,-7.42,0.55,1.04,7.51
14.905874967575073,-8.63,0.4,0.41,8.64
14.924760818481445,-9.13,-0.01,0.07,9.13
14.926216125488281,-8.3,-0.38,0.2,8.31
14.937906980514526,-6.73,-0.55,0.51,6.77
14.946588039398193,-5.52,-0.29,0.7,5.57
14.956056118011475,-4.71,0.55,0.77,4.8
14.974742889404297,-4.28,1.68,0.79,4.66
14.976213932037354,-4.36,2.57,0.96,5.15
14.988115787506104,-5.12,2.66,1.33,5.92
14.996334075927734,-6.36,2.07,1.71,6.9
15.00617790222168,-7.53,1.47,1.81,7.88
15.024948120117188,-8.26,1.18,1.77,8.52
15.026428937911987,-8.39,0.8,1.49,8.55
15.038034915924072,-7.83,0.45,1.08,7.91
15.046547889709473,-6.23,0.31,0.59,6.26
15.056078910827637,-4.12,0.61,0.13,4.16
15.07510495185852,-2.33,1.08,0.37,2.59
15.076571941375732,-1.66,1.36,1.13,2.42
15.088342905044556,-3.14,1.0,1.94,3.82
15.096532821655273,-5.61,0.29,2.65,6.21
15.106188774108887,-7.73,0.52,3.97,8.7
15.125045776367188,-8.88,-0.4,3.41,9.52
15.126523971557617,-10.21,-1.42,2.98,10.73
15.138346910476685,-11.35,-1.84,-2.5,11.76
15.146770000457764,-13.38,0.05,-10.46,16.98
15.15622091293335,-22.66,-2.42,9.14,24.55
15.174571990966797,-17.1,-4.53,24.55,30.25
15.176055908203125,0.57,-2.69,14.42,14.67
15.188194990158081,7.45,-0.27,2.92,8.0
15.196518898010254,9.07,2.76,1.56,9.6
15.206157922744751,7.0,5.91,0.09,9.16
15.225250005722046,5.43,4.29,-5.67,8.94
15.226708889007568,4.22,0.94,-9.91,10.81
15.238444805145264,-1.23,0.53,-7.42,7.53
15.246731996536255,-5.88,1.39,-1.71,6.27
15.256288051605225,-6.73,1.99,0.16,7.01
15.275193929672241,-3.05,2.26,0.68,3.85
15.276664972305298,1.65,1.74,1.48,2.81
15.288408994674683,4.31,1.02,0.22,4.43
15.296862125396729,3.66,0.07,0.77,3.74
15.306595802307129,0.98,-1.15,1.97,2.48
15.32512378692627,-1.56,-1.75,2.29,3.27
15.32659912109375,-3.73,-1.58,2.66,4.84
15.338542938232422,-5.04,-1.21,2.21,5.63
15.346827030181885,-5.34,-1.13,1.41,5.63
15.35643482208252,-4.62,-1.06,0.21,4.74
15.375123023986816,-2.72,-0.79,-0.99,3.0
15.376588821411133,-0.36,-0.18,-1.84,1.88
15.388661861419678,1.87,0.64,-2.54,3.21
15.396972894668579,3.75,1.43,-2.01,4.48
15.40651798248291,3.95,1.74,-0.5,4.34
15.425211906433105,2.43,1.27,0.27,2.75
15.4266939163208,0.82,0.54,0.62,1.16
15.438774108886719,-0.27,0.0,0.95,0.98
15.447023868560791,-0.73,-0.36,0.68,1.06
15.456731796264648,-0.71,-0.55,0.19,0.91
15.47525691986084,-0.72,-0.47,-0.06,0.86
15.476726055145264,-0.91,-0.24,0.33,0.99
15.48890209197998,-0.85,0.0,0.98,1.29
15.497028827667236,-0.21,0.14,1.44,1.46
15.506844997406006,0.65,0.16,1.77,1.89
15.525683879852295,1.41,-0.03,2.12,2.54
15.527152061462402,1.76,-0.19,2.11,2.75
15.538806915283203,1.47,0.03,1.45,2.06
15.546989917755127,1.12,0.52,0.56,1.35
15.556896924972534,1.01,0.55,0.02,1.15
15.575448036193848,0.84,0.07,0.25,0.87
15.576910972595215,0.41,-0.07,0.31,0.51
15.588923931121826,-0.01,-0.01,0.36,0.36
15.597117900848389,-0.05,-0.16,0.53,0.55
15.606989860534668,0.13,-0.14,0.65,0.67
15.625416994094849,-0.17,0.31,0.75,0.82
15.62689208984375,-0.61,0.27,0.92,1.13
15.63904094696045,-0.57,-0.14,1.02,1.17
15.6473388671875,-0.5,-0.05,0.46,0.68
15.657006978988647,-0.71,0.16,0.37,0.81
15.675770998001099,-0.75,0.1,0.48,0.89
15.67725396156311,-0.67,0.11,0.31,0.74
15.68895697593689,-0.67,0.09,-0.01,0.67
15.697242975234985,-0.65,-0.07,-0.29,0.71
15.706949949264526,-0.56,-0.02,-0.29,0.63
15.72565507888794,-0.35,0.09,0.05,0.36
15.727121829986572,0.12,0.04,0.31,0.33
15.739216804504395,0.51,0.07,0.82,0.96
15.747168064117432,0.74,0.22,0.96,1.23
15.757277965545654,0.72,0.36,1.31,1.53
15.775782108306885,0.68,0.47,1.63,1.82
15.777255058288574,0.93,0.32,1.7,1.96
15.789276123046875,0.79,0.27,1.76,1.94
15.797269821166992,0.59,0.28,1.6,1.72
15.807281970977783,0.44,0.37,1.55,1.65
15.825623035430908,0.59,0.37,1.43,1.59
15.826985836029053,0.84,0.37,1.56,1.81
15.839385032653809,0.94,0.58,1.83,2.13
15.847445964813232,1.03,1.13,1.95,2.47
15.857222080230713,1.19,1.69,1.95,2.84
15.875817775726318,1.5,2.11,2.07,3.31
15.877291917800903,1.97,2.73,1.98,3.9
15.889338970184326,2.33,3.67,2.1,4.82
15.897369861602783,2.5,4.53,2.17,5.61
15.907510995864868,2.85,4.97,2.31,6.17
15.926028966903687,3.31,5.33,2.46,6.73
15.927504062652588,3.68,5.86,2.73,7.43
15.939379930496216,3.82,6.47,3.3,8.2
15.947415828704834,3.6,6.8,4.21,8.77
15.957528114318848,3.05,6.82,4.49,8.71
15.976001977920532,2.02,7.19,4.75,8.85
15.977459907531738,0.96,6.99,4.96,8.62
15.989513874053955,-0.05,6.25,4.47,7.68
15.997416973114014,-1.01,5.72,4.46,7.32
16.007580995559692,-1.97,5.34,3.72,6.79
16.02592182159424,-2.53,4.81,3.03,6.22
16.0273859500885,-2.63,4.02,2.45,5.39
16.03942584991455,-4.17,4.11,0.65,5.89
16.04739809036255,-7.62,4.97,1.82,9.27
16.057605981826782,-10.76,5.7,5.9,13.53
16.075702905654907,-9.39,5.29,7.82,13.31
16.077171802520752,-2.89,4.02,5.92,7.71
16.089806079864502,4.0,3.09,3.92,6.39
16.09756898880005,9.56,3.24,3.31,10.62
16.107724905014038,13.71,3.83,3.19,14.58
16.126290798187256,15.85,3.86,4.06,16.81
16.127758026123047,17.01,2.62,6.27,18.31
16.139583110809326,12.99,0.89,7.36,14.95
16.147594928741455,7.83,0.29,7.1,10.57
16.157700061798096,5.12,0.05,6.01,7.89
16.17589282989502,3.29,0.16,4.83,5.84
16.17736005783081,2.49,0.33,4.43,5.09
16.189893007278442,2.27,0.32,4.58,5.12
16.197585105895996,2.2,0.33,4.87,5.35
16.20792293548584,2.11,0.36,5.02,5.45
16.2262020111084,1.89,0.23,4.59,4.96
16.22767400741577,1.35,-0.09,3.78,4.01
16.239959955215454,0.5,-0.46,3.27,3.33
16.2478449344635,-0.22,-0.63,3.24,3.3
16.25797986984253,-0.34,-0.57,3.53,3.59
16.276529788970947,-0.11,-0.48,3.47,3.5
16.278013944625854,0.0,-0.43,2.78,2.81
16.290156841278076,-0.09,-0.4,1.94,1.98
16.29772400856018,-0.13,-0.46,1.48,1.55
16.308035850524902,-0.06,-0.58,1.52,1.62
16.326476097106934,0.02,-0.47,1.72,1.78
16.32795286178589,-0.03,0.0,1.64,1.64
16.33998680114746,-0.09,0.65,1.45,1.59
16.34774112701416,-0.27,1.51,1.37,2.05
16.357999801635742,-0.62,2.54,1.32,2.92
16.3759708404541,-1.3,3.64,1.14,4.02
16.37743592262268,-2.48,4.61,0.93,5.31
16.390249967575073,-4.28,5.21,0.79,6.78
16.397979974746704,-6.82,5.31,0.75,8.67
16.408240795135498,-9.64,5.3,0.84,11.03
16.426290035247803,-11.91,5.23,0.31,13.01
16.42778205871582,-12.87,4.78,-1.24,13.78
16.44022512435913,-11.7,3.7,-3.73,12.82
16.447983980178833,-10.15,2.97,-5.03,11.71
16.458154916763306,-9.6,2.59,-4.07,10.74
16.476563930511475,-9.35,1.5,-2.33,9.75
16.478044986724854,-9.11,-0.08,-3.6,9.79
16.49027681350708,-9.56,-2.22,-6.93,12.01
16.498029947280884,-11.5,-4.37,-7.47,14.39
16.508243083953857,-13.32,-5.63,-6.38,15.8
16.526670932769775,-13.4,-6.26,-8.25,16.93
16.52815008163452,-12.88,-5.11,-8.98,16.51
16.54030990600586,-15.47,-0.88,-6.06,16.63
16.548221111297607,-13.24,3.54,0.83,13.73
16.55831480026245,-1.98,6.53,3.36,7.6
16.576744079589844,6.02,9.75,-4.0,12.13
16.578218936920166,7.8,10.82,-10.9,17.22
16.59046196937561,9.18,9.68,-9.4,16.31
16.598285913467407,4.38,5.87,-2.67,7.79
16.608361959457397,-4.32,2.45,1.95,5.33
16.626462936401367,-7.79,-1.06,1.11,7.93
16.6279239654541,-6.82,-3.15,-1.25,7.61
16.64052104949951,-3.87,-3.55,-1.13,5.37
16.648430824279785,-1.28,-2.18,-1.38,2.88
16.658523082733154,-1.27,0.26,-2.06,2.43
16.676745891571045,-3.14,2.35,-1.45,4.18
16.67820405960083,-3.58,2.8,-1.81,4.89
16.690566062927246,-2.78,1.79,-2.58,4.19
16.69834804534912,-2.46,0.17,-1.12,2.7
16.708586931228638,-2.57,-0.86,0.03,2.71
16.7268009185791,-1.95,-0.87,0.13,2.13
16.728267908096313,-0.69,-0.07,0.37,0.78
16.740654945373535,0.56,0.84,0.18,1.02
16.748423099517822,1.28,1.15,-0.21,1.73
16.75870394706726,1.02,0.83,-0.02,1.31
16.776733875274658,-0.1,0.24,-0.07,0.26
16.778214931488037,-1.18,-0.24,-0.01,1.2
16.79076910018921,-1.56,-0.44,0.24,1.63
16.79848599433899,-1.15,-0.37,0.4,1.27
16.808568954467773,-0.38,-0.1,0.42,0.57
16.826617002487183,0.32,0.19,0.24,0.44
16.828075885772705,0.94,0.31,0.37,1.05
16.840814113616943,1.12,0.27,0.32,1.19
16.848527908325195,0.92,0.17,0.6,1.11
16.858736038208008,0.71,0.05,0.71,1.0
16.87715196609497,0.54,0.02,0.62,0.82
16.87862992286682,0.44,-0.03,0.6,0.74
16.890875816345215,0.46,-0.11,0.76,0.89
16.89866590499878,0.54,-0.16,0.84,1.01
16.908865928649902,0.62,-0.04,1.22,1.36
16.927263975143433,0.88,0.06,1.23,1.51
16.928725004196167,1.06,0.12,0.93,1.41
16.940866947174072,0.89,0.13,0.69,1.13
16.948798894882202,0.6,0.32,0.36,0.76
16.95894193649292,0.58,0.52,0.03,0.77
16.977751970291138,0.82,0.56,-0.19,1.01
16.9796040058136,1.16,0.34,-0.05,1.2
16.99086904525757,1.47,0.15,0.31,1.5
16.99882197380066,1.8,0.19,0.71,1.94
17.009058952331543,2.08,0.57,0.79,2.29
17.026827812194824,2.29,1.11,0.82,2.67
17.028292894363403,2.44,1.57,0.55,2.95
17.040882110595703,2.6,1.88,0.3,3.22
17.048990964889526,3.01,1.84,-0.11,3.52
17.05915093421936,3.1,1.92,-0.15,3.64
17.076855897903442,3.2,2.18,0.2,3.87
17.078309059143066,3.61,2.35,0.72,4.36
17.091064929962158,4.18,2.25,0.76,4.8
17.098854064941406,4.46,2.34,0.78,5.09
17.109086990356445,4.56,3.08,1.34,5.66
17.126680850982666,5.03,4.31,1.7,6.83
17.12824010848999,5.88,5.82,2.04,8.52
17.141108989715576,6.85,7.29,2.1,10.22
17.149147033691406,7.91,8.11,1.89,11.48
17.159072875976562,8.59,8.58,1.62,12.24
17.1774959564209,8.75,9.49,1.31,12.97
17.17896604537964,8.52,10.45,0.96,13.51
17.191293954849243,7.19,10.6,0.54,12.81
17.199359893798828,4.19,10.74,0.83,11.55
17.20943593978882,0.02,11.14,2.79,11.48
17.227316856384277,-2.6,10.97,4.74,12.22
17.228795051574707,-1.78,10.16,5.0,11.46
17.24134111404419,0.86,9.93,2.67,10.31
17.249477863311768,2.73,10.19,2.29,10.79
17.259390830993652,4.67,8.75,4.58,10.92
17.277276039123535,6.73,5.81,6.27,10.87
17.27874493598938,7.79,2.9,6.43,10.5
17.29149103164673,7.4,1.2,5.49,9.29
17.299372911453247,5.02,1.64,1.41,5.46
17.309382915496826,2.74,2.18,-0.78,3.58
17.327571868896484,2.52,2.26,1.66,3.77
17.329033851623535,3.77,1.45,4.95,6.38
17.341495037078857,4.56,0.18,5.82,7.39
17.349355936050415,4.84,-1.0,4.94,6.98
17.359349966049194,4.86,-1.8,3.82,6.43
17.37738609313965,4.68,-2.42,3.14,6.13
17.378849983215332,4.6,-2.65,2.91,6.05
17.391541004180908,4.74,-2.49,3.02,6.14
17.39942979812622,4.8,-2.25,3.44,6.31
17.409616947174072,4.55,-2.21,3.64,6.23
17.427326917648315,4.06,-2.27,3.52,5.83
17.428811073303223,3.42,-2.33,3.11,5.17
17.441504955291748,2.92,-2.46,2.63,4.63
17.449586868286133,2.7,-2.69,2.47,4.54
17.45948100090027,2.8,-2.86,2.58,4.76
17.477327823638916,3.0,-2.76,2.53,4.79
17.478806972503662,3.03,-2.39,2.28,4.48
17.491759777069092,2.77,-1.89,1.91,3.85
17.499701976776123,2.19,-1.34,1.57,3.0
17.50960683822632,1.35,-0.83,1.39,2.1
17.52760887145996,0.34,-0.49,1.39,1.51
17.528975009918213,-0.73,-0.05,1.39,1.57
17.5418119430542,-1.8,0.79,1.26,2.33
17.54976987838745,-2.66,2.05,0.92,3.48
17.559793949127197,-3.51,3.79,0.27,5.17
17.577802896499634,-4.7,5.63,-0.7,7.36
17.579274892807007,-6.31,6.87,-1.86,9.51
17.591871976852417,-8.03,7.23,-2.51,11.09
17.59982395172119,-10.14,7.11,-1.77,12.51
17.609739780426025,-11.98,7.05,-0.34,13.9
17.627431869506836,-12.91,6.97,-0.46,14.67
17.628917932510376,-11.73,6.42,-2.66,13.63
17.641839027404785,-9.6,5.49,-6.52,12.83
17.649974822998047,-9.05,5.51,-6.37,12.36
17.659904956817627,-9.92,4.32,-1.39,10.9
17.67796277999878,-10.58,1.57,-2.18,10.91
17.679452896118164,-10.81,-2.66,-9.29,14.49
17.692100048065186,-11.17,-6.84,-9.62,16.25
17.699957847595215,-12.69,-8.59,-6.73,16.73
17.710102081298828,-13.81,-7.03,-7.54,17.23
17.727763891220093,-13.44,-4.34,-12.6,18.92
17.729249000549316,-18.59,1.84,-6.04,19.63
17.74195098876953,-15.22,4.47,10.75,19.16
17.749988079071045,0.8,7.04,1.86,7.32
17.760050773620605,5.42,10.79,-11.06,16.37
17.777283906936646,8.87,12.93,-12.12,19.81
17.779018878936768,11.83,10.89,-4.89,16.8
17.792109966278076,3.69,4.25,2.31,6.08
17.80007791519165,-5.83,-0.22,2.43,6.31
17.810286045074463,-9.16,-2.17,-2.66,9.78
17.82794690132141,-10.2,-2.29,-5.61,11.86
17.829421997070312,-8.69,-1.43,-3.66,9.53
17.84217095375061,-3.96,-0.12,-0.43,3.98
17.850382804870605,-2.02,0.81,-1.14,2.45
17.860270023345947,-1.08,1.16,-2.1,2.63
17.87777590751648,-0.62,0.68,-1.1,1.43
17.879247903823853,-1.56,0.42,-1.02,1.91
17.892242908477783,-2.68,0.1,-0.92,2.83
17.900300979614258,-3.23,0.16,-0.98,3.37
17.910277843475342,-2.53,0.42,-0.35,2.58
17.927935123443604,-0.96,0.57,-0.15,1.12
17.929404973983765,0.25,0.61,0.06,0.66
17.942279815673828,0.75,0.39,0.21,0.87
17.950421810150146,0.57,0.14,-0.05,0.58
17.96038794517517,-0.05,-0.06,0.1,0.12
17.977993965148926,-0.56,-0.1,0.4,0.69
17.979553937911987,-0.86,-0.03,0.57,1.03
17.99252700805664,-0.91,-0.01,0.6,1.09
18.00027894973755,-0.66,-0.01,0.21,0.69
18.010383129119873,-0.18,0.08,-0.03,0.19
18.027668952941895,0.24,0.23,-0.32,0.46
18.02945590019226,0.65,0.29,-0.14,0.72
18.04240083694458,1.05,0.41,0.02,1.12
18.0506010055542,1.48,0.48,0.32,1.58
18.06043791770935,1.68,0.45,1.06,2.03
18.078025817871094,1.48,0.34,1.39,2.05
18.079500913619995,1.11,0.18,1.22,1.65
18.092565059661865,0.9,0.17,0.87,1.26
18.100400924682617,1.0,0.22,0.67,1.22
18.11250591278076,1.08,0.26,0.28,1.14
18.127984046936035,1.12,0.29,0.15,1.16
18.1294949054718,1.2,0.31,0.11,1.24
18.142552852630615,1.27,0.48,0.42,1.42
18.15071392059326,1.43,0.74,0.71,1.75
18.160609006881714,1.66,0.93,0.96,2.13
18.178277015686035,1.9,1.06,0.87,2.34
18.179744005203247,2.25,1.17,0.61,2.6
18.192718029022217,2.89,1.45,0.33,3.25
18.20067596435547,3.53,1.85,0.38,4.0
18.210719108581543,4.06,2.33,0.1,4.68
18.22819995880127,4.51,2.8,0.03,5.3
18.2297420501709,4.8,3.14,0.38,5.74
18.242919921875,5.12,3.49,0.72,6.23
18.250898838043213,5.68,3.82,1.25,6.95
18.260693073272705,6.33,4.23,1.75,7.81
18.27825689315796,7.02,4.95,2.48,8.94
18.279749870300293,7.78,6.05,3.3,10.39
18.29295587539673,8.32,7.8,2.96,11.78
18.30079197883606,8.52,10.19,2.67,13.54
18.310751914978027,8.48,11.79,1.98,14.65
18.328398942947388,7.79,12.06,1.53,14.43
18.33002495765686,6.58,12.17,2.24,14.01
18.343274116516113,5.35,12.47,2.46,13.79
18.35110378265381,3.48,13.4,2.99,14.16
18.36103391647339,1.95,13.91,4.49,14.74
18.378132820129395,2.29,13.41,4.67,14.38
18.379902839660645,2.98,12.51,3.65,13.36
18.393074989318848,3.4,10.47,2.97,11.4
18.40092396736145,4.36,7.78,4.11,9.81
18.410989999771118,5.61,4.72,5.79,9.34
18.428578853607178,5.87,1.87,6.59,9.02
18.43013596534729,4.46,1.31,4.7,6.61
18.443126916885376,0.51,2.07,-0.7,2.24
18.451146125793457,-3.58,1.3,-2.66,4.64
18.461163997650146,-2.47,0.95,1.58,3.08
18.47848081588745,2.55,-0.01,6.29,6.78
18.480042934417725,5.82,-1.36,7.44,9.54
18.493144989013672,7.36,-2.68,6.02,9.87
18.50114893913269,7.54,-3.74,4.21,9.41
18.511241912841797,6.63,-4.23,2.77,8.33
18.528851985931396,5.58,-4.06,1.99,7.18
18.53072690963745,5.1,-3.56,2.0,6.53
18.543241024017334,4.87,-3.09,2.75,6.38
18.551284790039062,4.36,-2.86,3.12,6.07
18.561182975769043,3.71,-2.64,2.43,5.16
18.57901906967163,3.15,-2.48,1.28,4.2
18.580874919891357,3.0,-2.6,0.65,4.02
18.593324899673462,3.37,-2.7,1.05,4.44
18.601361989974976,3.95,-2.61,1.8,5.06
18.6113600730896,4.51,-2.28,2.25,5.53
18.628726959228516,4.57,-1.66,1.88,5.21
18.6306369304657,3.92,-0.99,0.87,4.13
18.64328908920288,2.62,-0.67,-0.06,2.7
18.65121078491211,1.17,-0.53,-0.26,1.31
18.661314964294434,0.02,-0.25,-0.11,0.27
18.67841100692749,-0.78,0.4,-0.18,0.89
18.680771827697754,-1.2,1.47,-0.56,1.97
18.693471908569336,-1.29,3.01,-1.04,3.43
18.70137882232666,-1.54,5.01,-1.59,5.47
18.711421012878418,-2.48,7.15,-2.41,7.94
18.728414058685303,-4.5,8.67,-3.46,10.36
18.73096990585327,-7.34,8.91,-4.04,12.23
18.74341583251953,-10.31,8.68,-2.88,13.78
18.751667976379395,-12.35,8.62,-1.5,15.13
18.761674880981445,-13.21,8.48,-2.9,15.96
18.778759956359863,-13.21,7.2,-6.89,16.54
18.78083086013794,-13.12,5.47,-9.29,16.98
18.79369878768921,-13.81,4.26,-5.53,15.47
18.801533937454224,-14.46,1.46,-2.15,14.69
18.811683893203735,-12.25,-2.18,-6.31,13.95
18.828655004501343,-10.75,-5.43,-9.03,15.05
18.830949783325195,-12.21,-7.45,-8.09,16.43
18.84369993209839,-14.09,-6.15,-8.61,17.62
18.851637840270996,-13.97,-4.8,-12.06,19.06
18.861620903015137,-18.36,0.35,-10.32,21.06
18.878786087036133,-17.21,4.58,6.86,19.08
18.88099694252014,-0.02,8.07,7.0,10.68
18.8938250541687,4.88,11.44,-9.91,15.9
18.90196394920349,7.35,13.32,-15.5,21.71
18.911704063415527,10.38,10.86,-9.44,17.74
18.928515911102295,1.73,6.37,1.44,6.75
18.931135892868042,-7.74,2.64,4.96,9.56
18.943718910217285,-8.95,-1.22,-0.53,9.04
18.95182704925537,-5.78,-2.55,-3.82,7.38
18.96177387237549,-2.12,-2.51,-2.4,4.06
18.978918075561523,-0.35,-1.43,-1.12,1.84
18.981175899505615,-1.95,0.09,-1.37,2.38
18.993948936462402,-4.45,1.68,-1.11,4.88
19.001916885375977,-5.12,2.23,-2.37,6.06
19.011883974075317,-5.1,1.3,-1.91,5.59
19.029008865356445,-4.78,-0.13,-0.07,4.78
19.03122901916504,-3.51,-0.79,-0.58,3.64
19.044028997421265,-1.4,-0.47,-0.44,1.54
19.052015781402588,0.91,0.5,0.12,1.04
19.061967849731445,2.66,1.44,0.04,3.02
19.078982830047607,2.96,1.61,0.05,3.36
19.08122205734253,1.68,0.72,0.21,1.83
19.09412908554077,-0.07,-0.39,0.31,0.5
19.101918935775757,-1.2,-0.84,0.52,1.55
19.11207890510559,-1.61,-0.7,0.68,1.88
19.129050970077515,-1.36,-0.31,0.6,1.51
19.131478786468506,-0.76,-0.01,0.25,0.8
19.144099950790405,-0.12,0.05,0.45,0.46
19.15213894844055,0.58,-0.03,0.4,0.7
19.162153959274292,1.13,0.14,0.37,1.19
19.17920994758606,1.34,0.36,0.7,1.55
19.181330919265747,1.39,0.4,0.87,1.68
19.194206953048706,1.35,0.34,0.77,1.59
19.20205307006836,1.3,0.18,1.16,1.75
19.212206840515137,1.21,-0.05,1.01,1.57
19.2288761138916,0.95,-0.12,0.42,1.04
19.231525897979736,0.47,-0.12,0.19,0.52
19.24421977996826,0.21,-0.1,-0.04,0.23
19.252177000045776,0.21,0.12,-0.24,0.34
19.262295961380005,0.35,0.52,-0.11,0.63
19.278958797454834,0.79,0.78,0.06,1.11
19.281651973724365,1.43,0.79,0.14,1.63
19.294410943984985,1.91,0.7,0.2,2.04
19.302353858947754,2.35,0.73,0.12,2.46
19.31244993209839,2.74,1.01,0.31,2.93
19.32910990715027,3.27,1.46,0.39,3.6
19.331957817077637,3.8,1.96,0.43,4.29
19.344403982162476,4.15,2.31,0.42,4.76
19.352370977401733,4.41,2.52,0.8,5.14
19.36239004135132,4.74,2.68,0.73,5.49
19.379106998443604,5.37,2.87,0.48,6.1
19.38179588317871,6.15,3.33,0.44,7.0
19.394620895385742,6.93,4.45,0.73,8.26
19.402352809906006,7.84,6.06,1.38,10.0
19.412510871887207,8.52,7.75,1.8,11.65
19.428502082824707,8.89,9.67,1.8,13.25
19.4320969581604,9.4,11.47,1.83,14.94
19.444984912872314,9.85,12.14,1.92,15.75
19.45279097557068,9.57,11.79,1.51,15.26
19.462700843811035,7.65,12.33,1.36,14.57
19.47908878326416,4.71,13.94,3.02,15.02
19.482151985168457,1.71,15.12,4.78,15.94
19.49458599090576,-0.37,14.15,5.89,15.33
19.50256586074829,-0.11,12.52,5.63,13.72
19.512488842010498,0.88,11.22,3.69,11.84
19.528918981552124,1.94,9.82,2.96,10.43
19.532047986984253,4.37,7.3,4.57,9.65
19.54459285736084,6.7,3.84,6.41,10.03
19.552758932113647,7.21,1.11,7.31,10.32
19.562687873840332,4.98,1.5,5.9,7.86
19.579696893692017,0.21,1.43,0.57,1.55
19.582091808319092,-3.68,-0.61,-2.58,4.53
19.594762802124023,-3.98,-1.59,0.86,4.37
19.602662086486816,0.47,-0.21,5.36,5.38
19.61269497871399,4.54,-1.52,6.74,8.26
19.628875970840454,7.88,-3.2,6.21,10.53
19.632206916809082,9.79,-4.42,4.91,11.81
19.644771099090576,9.44,-5.03,3.61,11.28
19.65293598175049,7.34,-4.75,2.74,9.16
19.662846088409424,5.34,-4.0,2.1,6.99
19.679378986358643,4.16,-3.42,1.94,5.72
19.682244777679443,3.56,-3.31,2.28,5.36
19.694997787475586,3.42,-3.3,2.54,5.38
19.70293092727661,3.53,-3.14,2.05,5.15
19.712911128997803,3.55,-3.08,1.12,4.83
19.72908592224121,3.59,-2.99,0.61,4.71
19.732358932495117,3.69,-2.89,0.71,4.74
19.744897842407227,3.77,-2.73,1.04,4.76
19.753149032592773,3.61,-2.41,1.25,4.51
19.76284408569336,3.14,-1.94,0.8,3.77
19.779093980789185,2.19,-1.4,-0.2,2.6
19.782352924346924,0.92,-0.92,-1.05,1.67
19.7949800491333,-0.54,-0.45,-1.47,1.62
19.8051118850708,-1.87,0.3,-1.43,2.37
19.81308603286743,-2.81,1.53,-1.24,3.43
19.82907009124756,-3.5,3.3,-1.19,4.95
19.832386016845703,-4.33,5.42,-1.61,7.12
19.845074892044067,-5.59,7.24,-2.5,9.48
19.853096961975098,-7.55,8.06,-3.01,11.44
19.863039016723633,-9.84,8.03,-2.34,12.91
19.878999948501587,-12.0,8.08,-0.76,14.48
19.882506847381592,-13.43,8.05,-0.26,15.65
19.895339965820312,-13.16,7.61,-2.47,15.4
19.903264045715332,-10.7,6.15,-7.03,14.2
19.913166999816895,-10.21,5.48,-7.29,13.69
19.92953109741211,-11.4,4.72,-2.11,12.51
19.93251395225525,-11.39,1.76,-2.0,11.69
19.945194959640503,-10.32,-2.06,-7.53,12.94
19.953229904174805,-10.04,-5.27,-9.33,14.68
19.963272094726562,-11.95,-5.94,-8.15,15.63
19.979723930358887,-14.35,-5.08,-7.29,16.87
19.982462882995605,-14.55,-4.45,-9.92,18.16
19.995695114135742,-18.17,1.43,-9.89,20.73
20.003117084503174,-15.0,4.16,4.89,16.31
20.013259887695312,2.7,6.49,5.48,8.91
20.029253005981445,7.12,9.75,-8.55,14.79
20.032543897628784,9.17,10.35,-15.25,20.58
20.045512914657593,10.81,8.06,-10.49,17.08
20.05359983444214,4.21,5.62,0.47,7.03
20.0634708404541,-3.0,4.44,5.24,7.49
20.079901933670044,-5.91,2.5,1.79,6.66
20.082494974136353,-7.16,0.61,-2.66,7.66
20.095664978027344,-4.86,-1.49,-3.01,5.9
20.103517055511475,-1.46,-2.4,-1.26,3.07
20.113467931747437,-1.2,-1.29,0.56,1.84
20.12961196899414,-4.26,0.11,-0.44,4.28
20.13249397277832,-6.37,0.57,-1.73,6.62
20.14554786682129,-6.17,0.51,-1.32,6.33
20.153700828552246,-4.6,0.41,-1.73,4.93
20.163485050201416,-2.9,0.34,-1.13,3.13
20.17981481552124,-1.64,0.73,-0.05,1.79
20.182756900787354,-0.16,0.74,-0.16,0.77
20.195722103118896,1.59,0.79,-0.57,1.86
20.20365285873413,2.44,0.99,-0.77,2.74
20.21351385116577,1.88,0.95,0.02,2.1
20.230021953582764,0.36,0.44,0.42,0.7
20.232711791992188,-0.83,-0.26,0.26,0.9
20.24553394317627,-1.69,-0.66,0.19,1.82
20.253708839416504,-1.96,-0.73,0.15,2.09
20.263576984405518,-1.51,-0.54,0.19,1.61
20.279873847961426,-0.64,-0.22,0.36,0.76
20.282622814178467,0.21,-0.01,0.56,0.59
20.29595398902893,0.96,0.08,0.59,1.12
20.303743839263916,1.37,0.16,0.57,1.49
20.313737869262695,1.38,0.25,0.47,1.47
20.329652786254883,1.21,0.26,0.51,1.33
20.33268094062805,1.13,0.22,0.47,1.24
20.345780849456787,1.08,0.23,0.67,1.29
20.353878021240234,0.97,0.25,1.37,1.69
20.36365795135498,0.98,0.12,1.22,1.56
20.379551887512207,1.06,0.16,0.43,1.15
20.382690906524658,1.25,0.25,0.13,1.28
20.395931005477905,1.16,0.39,-0.41,1.29
20.403799057006836,0.8,0.52,-0.54,1.09
20.41392707824707,0.59,0.5,-0.48,0.91
20.430081844329834,0.56,0.48,-0.21,0.76
20.432830810546875,0.67,0.52,0.17,0.86
20.445820808410645,0.99,0.63,0.18,1.18
20.454027891159058,1.55,0.78,0.26,1.75
20.463737964630127,2.11,1.08,0.27,2.38
20.47980785369873,2.63,1.47,0.47,3.04
20.482812881469727,3.0,1.71,0.65,3.51
20.496119022369385,3.21,1.81,0.33,3.69
20.504086017608643,3.34,2.12,0.5,3.98
20.513990879058838,3.83,2.65,0.56,4.69
20.53022789955139,4.65,3.02,0.37,5.55
20.532951831817627,5.33,3.52,0.36,6.39
20.546074867248535,5.93,4.26,0.98,7.36
20.554245948791504,6.56,5.47,1.75,8.71
20.56400990486145,7.22,7.15,2.4,10.44
20.58052396774292,8.02,9.09,2.43,12.36
20.58294677734375,8.93,10.8,2.16,14.17
20.596386909484863,9.78,12.02,1.33,15.55
20.60442090034485,9.75,12.9,0.3,16.17
20.614348888397217,7.87,13.95,0.69,16.03
20.630659103393555,5.21,14.59,1.66,15.58
20.633250951766968,2.61,14.0,2.67,14.48
20.646199941635132,0.88,12.52,3.84,13.12
20.65445590019226,1.46,11.19,4.22,12.04
20.66414785385132,2.84,10.32,3.56,11.28
20.68037509918213,3.56,9.34,3.52,10.59
20.683177947998047,5.28,7.35,5.15,10.41
20.696415901184082,7.66,3.8,7.0,11.05
20.704477787017822,8.95,1.4,7.56,11.79
20.714224815368652,6.94,1.98,4.54,8.52
20.730551958084106,2.84,1.31,-1.29,3.38
20.73324489593506,1.9,0.39,-1.31,2.34
20.746336936950684,4.08,0.79,3.57,5.47
20.754573822021484,6.81,0.08,6.63,9.5
20.764322996139526,8.72,-1.2,7.05,11.27
20.780704975128174,9.2,-2.95,5.75,11.24
20.78342890739441,7.62,-3.6,4.1,9.37
20.79648494720459,5.54,-3.17,2.58,6.88
20.804508924484253,4.31,-2.64,1.35,5.23
20.814584970474243,3.43,-1.91,1.03,4.05
20.830771923065186,2.93,-1.43,1.43,3.56
20.83344292640686,2.68,-1.4,1.64,3.43
20.846451997756958,2.53,-1.63,1.42,3.32
20.854697942733765,2.36,-1.99,1.2,3.31
20.864373922348022,2.36,-2.31,1.44,3.6
20.880982875823975,2.58,-2.42,1.89,4.01
20.88343095779419,2.82,-2.28,2.19,4.23
20.896535873413086,2.82,-1.77,2.04,3.9
20.90458106994629,2.53,-1.07,1.34,3.05
20.914541959762573,1.92,-0.43,0.54,2.04
20.930520057678223,0.97,-0.07,0.12,0.97
20.933658123016357,-0.18,0.07,0.09,0.21
20.946786880493164,-1.13,0.34,0.08,1.18
20.95491600036621,-1.8,1.12,-0.19,2.12
20.965137004852295,-2.17,2.53,-0.58,3.38
20.989113807678223,-2.59,4.48,-1.31,5.33
20.990646839141846,-3.6,6.15,-2.3,7.48
20.99673891067505,-5.35,6.84,-3.01,9.19
21.00474977493286,-7.52,6.71,-2.77,10.45
21.014636993408203,-9.5,6.3,-1.56,11.5
21.03068780899048,-10.59,6.05,-0.94,12.23
21.03384304046631,-10.91,6.23,-2.25,12.76
21.046875953674316,-10.76,5.98,-4.95,13.26
21.05478811264038,-10.85,5.13,-7.04,13.91
21.064602851867676,-11.68,4.86,-4.61,13.46
21.08047103881836,-12.59,3.95,-1.66,13.29
21.083681106567383,-12.99,1.55,-4.31,13.77
21.096939086914062,-12.48,-1.64,-8.55,15.21
21.10502600669861,-11.42,-4.19,-8.15,14.64
21.11527681350708,-12.66,-6.69,-8.06,16.43
21.131130933761597,-13.99,-6.52,-10.32,18.56
21.139948844909668,-16.69,-1.56,-9.08,19.06
21.146727085113525,-19.56,4.98,-4.46,20.67
21.15492296218872,-9.29,11.26,4.06,15.15
21.165432929992676,3.91,15.36,-4.82,16.56
21.180794954299927,5.56,16.34,-14.08,22.27
21.189621925354004,6.93,10.84,-7.94,15.11
21.197052001953125,2.19,3.54,-1.57,4.44
21.204917907714844,-2.67,-0.29,0.39,2.71
21.215359926223755,-2.77,-3.26,-0.03,4.27
21.231308937072754,-2.92,-3.75,-1.07,4.87
21.23984384536743,-2.8,-3.77,-1.06,4.81
21.24695897102356,-2.41,-2.69,-1.19,3.8
21.255018949508667,-3.32,-0.21,-1.37,3.59
21.26521110534668,-5.4,1.87,-0.37,5.72
21.281327962875366,-8.09,3.61,-1.17,8.93
21.289888858795166,-10.83,4.45,-4.84,12.66
21.297117948532104,-10.02,1.29,-2.41,10.38
21.305077075958252,-4.87,-2.29,1.35,5.54
21.31556510925293,-0.85,-2.59,-0.15,2.73
21.331007957458496,1.53,-0.71,-0.08,1.68
21.339674949645996,2.91,1.56,0.54,3.34
21.347049951553345,3.63,2.52,-0.02,4.41
21.35520601272583,2.65,1.72,-0.44,3.18
21.36534881591797,0.7,0.27,-0.15,0.76
21.381033897399902,-0.88,-0.56,-0.19,1.06
21.389604091644287,-1.88,-0.61,-0.14,1.98
21.397166967391968,-2.32,-0.37,0.03,2.34
21.405298948287964,-1.95,-0.35,0.4,2.02
21.41557502746582,-0.89,-0.3,0.29,0.98
21.431334972381592,0.27,-0.08,0.27,0.39
21.439880847930908,1.11,0.18,0.4,1.19
21.447166919708252,1.4,0.47,0.19,1.48
21.455291986465454,1.09,0.49,0.37,1.25
21.465791940689087,0.56,0.27,0.31,0.69
21.48885202407837,0.15,0.21,0.29,0.38
21.49035882949829,0.12,0.16,0.44,0.48
21.497364044189453,0.32,0.04,0.32,0.45
21.50532579421997,0.37,-0.01,0.22,0.43
21.515821933746338,0.33,-0.06,0.2,0.39
21.539233922958374,0.17,0.02,0.1,0.19
21.54074478149414,0.16,0.23,0.24,0.36
21.547342777252197,0.59,0.39,0.27,0.75
21.55544900894165,1.31,0.51,0.25,1.42
21.56580090522766,2.06,0.64,0.39,2.19
21.581238985061646,2.71,0.8,0.37,2.84
21.58997893333435,3.02,0.92,0.83,3.26
21.59762477874756,3.11,1.02,1.52,3.6
21.605525970458984,3.2,1.3,1.68,3.84
21.61601209640503,3.41,1.78,1.57,4.15
21.631298065185547,3.94,2.26,1.02,4.65
21.640065908432007,4.47,2.53,1.08,5.24
21.64748191833496,5.01,2.99,0.81,5.89
21.655616998672485,5.58,3.56,0.62,6.64
21.666074991226196,6.21,4.07,0.66,7.45
21.688830852508545,6.74,4.56,0.72,8.16
21.690328121185303,7.31,5.6,1.21,9.28
21.697589874267578,8.07,7.05,1.2,10.78
21.70558190345764,9.12,9.03,1.42,12.91
21.71606683731079,10.32,11.44,1.55,15.48
21.739285945892334,10.51,13.37,0.81,17.02
21.740778923034668,9.84,14.26,1.31,17.37
21.747878074645996,8.96,14.21,1.85,16.9
21.756000995635986,6.92,14.58,1.98,16.25
21.766300916671753,3.67,15.56,4.41,16.58
21.788882970809937,1.25,15.09,6.58,16.5
21.790400981903076,1.33,13.3,5.89,14.6
21.797823905944824,1.78,11.73,4.41,12.65
21.805850982666016,1.95,9.83,4.68,11.06
21.81628394126892,3.35,6.89,6.06,9.76
21.83901882171631,5.34,3.47,7.51,9.84
21.840497970581055,5.74,2.91,6.69,9.28
21.847871780395508,1.99,3.0,1.17,3.78
21.8560528755188,-1.22,0.96,-2.31,2.78
21.866110801696777,0.1,-0.46,1.77,1.83
21.88852310180664,4.23,-0.96,6.92,8.16
21.890048027038574,7.73,-1.59,8.17,11.35
21.89791202545166,9.79,-2.68,7.19,12.43
21.906150817871094,10.28,-3.65,5.08,12.03
21.916432857513428,8.51,-4.26,3.18,10.03
21.939777851104736,6.1,-4.31,2.19,7.78
21.941253900527954,4.38,-3.61,2.06,6.03
21.94802188873291,2.6,-2.74,2.44,4.49
21.95602798461914,0.8,-2.5,2.7,3.76
21.966558933258057,-0.3,-2.61,2.74,3.79
21.988937854766846,-0.67,-2.73,2.29,3.62
21.99041199684143,-0.39,-2.98,1.77,3.48
21.99815607070923,0.75,-2.93,1.74,3.48
22.0064058303833,2.19,-2.89,2.13,4.2
22.01653289794922,3.52,-2.87,2.67,5.26
22.039448976516724,4.23,-2.64,3.0,5.81
22.04091191291809,4.15,-2.22,2.62,5.38
22.04826593399048,3.34,-1.81,1.64,4.13
22.05607509613037,2.16,-1.43,0.91,2.74
22.06654191017151,0.76,-1.04,0.39,1.34
22.089566946029663,-0.62,-0.57,-0.17,0.85
22.091038942337036,-1.83,0.3,-0.61,1.95
22.09872794151306,-2.66,1.51,-0.67,3.13
22.106292963027954,-2.94,3.17,-0.56,4.35
22.11673092842102,-3.34,4.92,-0.72,5.99
22.139577865600586,-4.53,6.3,-1.07,7.83
22.141050815582275,-6.58,7.29,-1.62,9.95
22.14826488494873,-9.31,8.1,-2.08,12.51
22.15645694732666,-11.8,8.76,-2.17,14.85
22.166647911071777,-13.32,9.43,-2.54,16.51
22.189526081085205,-13.96,9.07,-4.77,17.31
22.1910080909729,-14.04,7.15,-7.84,17.59
22.198357105255127,-14.46,5.89,-4.56,16.26
22.20626211166382,-14.25,3.68,-0.57,14.72
22.216986894607544,-12.43,0.35,-5.37,13.54
22.23944902420044,-12.17,-2.6,-11.04,16.63
22.2409348487854,-13.65,-5.38,-7.6,16.52
22.248351097106934,-15.45,-6.45,-5.91,17.75
22.256468772888184,-15.75,-6.0,-12.26,20.84
22.26673197746277,-21.29,0.69,-7.65,22.63
22.28975486755371,-15.23,5.5,8.8,18.42
22.291245937347412,0.99,10.71,-0.73,10.78
22.299078941345215,3.3,16.22,-15.94,22.97
22.306699991226196,7.16,17.22,-15.1,23.99
22.316914081573486,10.62,11.97,-4.59,16.64
22.33967399597168,1.34,4.04,2.16,4.77
22.341154098510742,-5.92,-1.62,2.93,6.8
22.34892177581787,-6.97,-4.63,-1.53,8.5
22.35661506652832,-5.46,-4.06,-1.65,7.0
22.366822004318237,-2.87,-2.37,0.57,3.76
22.389588832855225,-2.88,-0.49,0.88,3.05
22.39107084274292,-5.36,1.51,-2.56,6.12
22.39893388748169,-7.06,2.64,-4.83,8.95
22.406524896621704,-8.37,2.03,-2.18,8.88
22.4171199798584,-7.93,0.82,-0.39,7.98
22.43972682952881,-4.95,-0.65,-1.44,5.19
22.44121789932251,-2.2,-0.99,-1.17,2.68
22.448975086212158,0.1,0.13,-0.56,0.58
22.456692934036255,1.85,1.31,-0.32,2.28
22.467086791992188,2.72,1.72,-0.56,3.26
22.489756107330322,2.32,1.39,-0.26,2.71
22.491250038146973,1.0,0.64,-0.04,1.18
22.49920082092285,-0.37,-0.13,0.16,0.42
22.506761074066162,-1.25,-0.5,0.34,1.38
22.517356872558594,-1.42,-0.45,0.28,1.51
22.540493965148926,-1.11,-0.14,0.06,1.12
22.541968822479248,-0.47,0.25,0.27,0.59
22.549066066741943,0.59,0.58,0.28,0.87
22.556806087493896,1.56,0.81,0.47,1.81
22.567276000976562,2.06,0.7,0.68,2.27
22.590016841888428,2.04,0.36,1.29,2.44
22.591508865356445,1.83,-0.03,1.58,2.41
22.599294900894165,1.67,-0.24,1.4,2.19
22.60687494277954,1.45,-0.36,1.22,1.92
22.617361068725586,1.13,-0.42,0.75,1.41
22.640268802642822,0.75,-0.44,0.13,0.87
22.64176893234253,0.41,-0.28,-0.35,0.6
22.65062189102173,0.13,0.01,-0.57,0.58
22.65703010559082,0.15,0.2,-0.53,0.58
22.66732406616211,0.5,0.3,-0.31,0.66
22.690501928329468,0.99,0.32,0.02,1.04
22.691982984542847,1.43,0.49,0.08,1.51
22.699345111846924,1.86,0.79,0.19,2.02
22.70700693130493,2.53,1.08,0.55,2.8
22.717483043670654,3.44,1.54,0.72,3.83
22.740233898162842,4.28,2.28,0.6,4.88
22.74171495437622,4.91,2.99,0.62,5.78
22.749490976333618,5.21,3.16,0.81,6.14
22.75714683532715,5.39,3.22,0.6,6.3
22.7674298286438,5.82,3.37,0.39,6.73
22.7903790473938,6.42,3.92,0.18,7.52
22.7918701171875,7.11,4.91,0.79,8.67
22.79962992668152,7.92,6.05,1.65,10.1
22.80712080001831,8.41,7.84,2.43,11.75
22.817786931991577,8.88,10.25,2.99,13.88
22.840304851531982,9.18,12.24,2.63,15.52
22.841789960861206,8.68,13.71,2.32,16.39
22.850066900253296,8.09,14.13,3.16,16.58
22.85749912261963,7.22,14.21,2.68,16.16
22.867530822753906,5.2,14.59,3.84,15.95
22.89028787612915,3.49,14.02,5.67,15.52
22.891776084899902,3.88,12.74,5.31,14.33
22.899905920028687,4.91,11.81,3.42,13.23
22.90741205215454,4.95,10.41,2.84,11.87
22.917749881744385,5.93,7.42,4.16,10.36
22.94052290916443,7.95,3.77,6.08,10.69
22.94198703765869,9.02,1.5,7.74,11.97
22.949960947036743,6.02,2.72,5.3,8.46
22.957475900650024,-0.07,1.89,-0.17,1.89
22.967731952667236,-4.35,-0.08,-2.79,5.16
22.990731954574585,-6.02,-1.45,0.71,6.23
22.99221396446228,-1.46,-0.53,5.26,5.48
22.999948978424072,4.86,-0.31,6.85,8.4
23.007462978363037,7.81,-1.92,5.73,9.87
23.017822980880737,8.67,-3.31,3.99,10.1
23.04060697555542,7.67,-3.58,3.02,8.98
23.042102813720703,5.79,-3.75,2.51,7.34
23.05008888244629,4.78,-3.86,2.55,6.65
23.057642936706543,4.44,-3.96,3.25,6.77
23.067912101745605,4.4,-3.88,3.85,7.01
23.09121608734131,4.37,-3.33,3.63,6.58
23.092702865600586,4.13,-2.57,2.35,5.4
23.100059032440186,3.71,-2.06,1.14,4.39
23.107638835906982,3.35,-1.92,0.8,3.94
23.11776900291443,3.37,-1.97,1.53,4.19
23.14089012145996,3.61,-1.85,2.16,4.59
23.14235782623291,3.54,-1.4,1.92,4.26
23.150289058685303,2.65,-0.82,0.98,2.94
23.15774893760681,1.08,-0.43,-0.02,1.16
23.168017864227295,-0.62,-0.35,-0.42,0.82
23.190805912017822,-1.91,-0.18,-0.36,1.95
23.1922869682312,-2.55,0.41,-0.35,2.6
23.20027995109558,-2.69,1.43,-0.64,3.11
23.207889080047607,-2.7,2.69,-1.39,4.05
23.217823028564453,-3.22,4.14,-2.46,5.79
23.24125385284424,-4.39,5.43,-3.37,7.75
23.242743015289307,-6.17,6.16,-3.79,9.5
23.25028085708618,-8.35,6.35,-3.51,11.06
23.25791096687317,-10.23,6.21,-2.63,12.25
23.26790499687195,-11.26,6.62,-2.42,13.28
23.290870904922485,-11.46,7.82,-3.6,14.33
23.292357921600342,-11.53,7.8,-5.83,15.09
23.300338983535767,-11.29,6.87,-6.56,14.75
23.307907104492188,-12.09,6.48,-3.59,14.17
23.317928791046143,-12.76,4.43,-2.52,13.74
23.34099578857422,-12.54,0.8,-7.83,14.8
23.342469930648804,-12.73,-3.21,-11.21,17.26
23.350465774536133,-13.77,-6.02,-9.55,17.8
23.358108043670654,-15.4,-5.48,-8.62,18.47
23.368119955062866,-16.32,-4.28,-10.04,19.63
23.39144992828369,-20.25,2.15,-8.57,22.09
23.392921924591064,-14.18,6.47,8.4,17.7
23.400496006011963,2.65,10.34,3.13,11.12
23.40845012664795,4.83,14.85,-13.02,20.33
23.41798496246338,7.52,14.45,-14.65,21.9
23.44169592857361,8.9,8.59,-5.57,13.56
23.443163871765137,-0.26,3.9,1.19,4.08
23.45045495033264,-6.65,0.46,1.65,6.86
23.4581298828125,-8.23,-1.97,-1.74,8.63
23.467977046966553,-7.4,-2.18,-2.96,8.26
23.491013050079346,-4.55,-2.13,-1.49,5.24
23.49250602722168,-2.89,-0.68,-0.39,2.99
23.500764846801758,-3.45,0.99,-0.71,3.65
23.508173942565918,-4.57,1.72,-1.29,5.05
23.518107891082764,-4.82,1.45,-1.23,5.18
23.541561126708984,-4.29,0.5,-0.25,4.32
23.543028831481934,-3.64,0.1,-1.22,3.84
23.550652980804443,-2.81,-0.04,-1.89,3.38
23.558294773101807,-2.11,0.13,-0.51,2.17
23.56811499595642,-0.94,0.55,-0.06,1.09
23.591264963150024,0.73,0.84,-0.18,1.12
23.592737913131714,2.01,1.0,-0.05,2.24
23.600761890411377,2.17,0.78,0.28,2.32
23.608367919921875,1.08,0.31,0.13,1.13
23.618201971054077,-0.37,-0.13,0.0,0.39
23.641968965530396,-1.06,-0.35,-0.3,1.15
23.643436908721924,-1.14,-0.24,-0.09,1.16
23.65076780319214,-0.87,-0.04,0.39,0.95
23.658586025238037,-0.24,-0.07,0.5,0.55
23.66828489303589,0.43,-0.13,0.66,0.79
23.691684007644653,0.94,0.04,0.72,1.18
23.693150997161865,1.14,0.19,0.5,1.25
23.700976848602295,1.03,0.2,0.48,1.15
23.7084698677063,1.0,0.16,0.87,1.33
23.718387126922607,1.11,0.14,0.8,1.37
23.741554975509644,1.16,0.28,0.81,1.44
23.74303102493286,1.17,0.2,1.34,1.79
23.750988006591797,1.11,0.06,0.46,1.2
23.758583068847656,0.95,0.06,-0.37,1.02
23.768406867980957,0.73,0.09,-0.19,0.75
23.791933059692383,0.63,0.27,-0.21,0.71
23.793426036834717,0.78,0.49,0.04,0.92
23.801077842712402,1.17,0.68,0.24,1.37
23.80860710144043,1.7,0.69,0.09,1.83
23.81860089302063,2.29,0.66,-0.02,2.38
23.841622829437256,2.85,0.85,0.24,2.98
23.843118906021118,3.32,1.21,0.43,3.55
23.85168695449829,3.53,1.72,0.83,4.01
23.858844995498657,3.44,2.28,0.98,4.24
23.868550777435303,3.6,2.62,0.71,4.5
23.89172077178955,4.02,2.77,0.87,4.95
23.893208026885986,4.72,2.99,0.74,5.63
23.901092052459717,5.54,3.51,0.7,6.59
23.908737897872925,6.26,4.31,0.8,7.64
23.918627977371216,6.96,5.39,1.19,8.88
23.941792964935303,7.48,7.36,1.46,10.59
23.94327688217163,8.36,9.91,1.68,13.07
23.95112705230713,9.65,12.04,1.6,15.51
23.95916199684143,10.14,13.47,1.33,16.91
23.96895694732666,9.12,14.57,2.11,17.31
23.992123126983643,8.15,14.72,3.0,17.09
23.993623971939087,6.73,14.24,2.66,15.97
24.00139808654785,4.18,13.68,4.37,14.95
24.00898790359497,2.06,12.62,5.77,14.02
24.019117832183838,1.79,11.24,5.39,12.59
24.041940927505493,2.22,9.7,3.93,10.69
24.04341197013855,2.7,8.05,3.75,9.28
24.05123996734619,3.24,6.47,5.08,8.84
24.059140920639038,4.86,3.73,6.18,8.7
24.068872928619385,5.67,2.21,5.83,8.42
24.09240698814392,2.01,2.07,0.66,2.95
24.093902111053467,-1.37,1.8,-1.89,2.94
24.101502895355225,-1.18,0.98,1.63,2.23
24.10910177230835,2.59,0.07,5.3,5.89
24.119229793548584,6.33,-1.12,5.87,8.7
24.1423659324646,8.8,-2.52,4.98,10.42
24.143850803375244,9.69,-3.53,3.96,11.04
24.151424884796143,8.86,-3.77,3.02,10.09
24.159325122833252,7.02,-3.48,2.46,8.21
24.16922092437744,5.3,-3.21,2.41,6.64
24.19220209121704,4.0,-3.24,2.4,5.67
24.19369602203369,3.42,-3.45,2.2,5.33
24.20147180557251,3.47,-3.52,1.86,5.28
24.209288120269775,3.77,-3.33,1.54,5.26
24.21928095817566,4.14,-3.09,1.28,5.32
24.242659091949463,4.44,-2.98,1.21,5.48
24.244141101837158,4.63,-3.04,1.35,5.7
24.251420974731445,4.75,-3.06,1.57,5.86
24.259303092956543,4.62,-2.9,1.58,5.67
24.26936388015747,4.11,-2.55,1.25,4.99
24.29267406463623,3.26,-2.07,0.68,3.92
24.294156074523926,2.15,-1.57,0.07,2.66
24.30163288116455,0.95,-1.15,-0.46,1.56
24.309295892715454,-0.05,-0.66,-0.74,0.99
24.319538116455078,-0.74,0.02,-0.97,1.22
24.342480897903442,-1.22,1.04,-1.22,2.01
24.343970775604248,-1.66,2.53,-1.58,3.41
24.351675033569336,-2.17,4.66,-1.97,5.5
24.359405040740967,-3.18,7.24,-2.41,8.26
24.369481086730957,-5.08,9.21,-3.23,11.0
24.392481803894043,-7.71,9.28,-3.75,12.63
24.393990993499756,-10.39,8.74,-2.83,13.86
24.401916027069092,-12.54,8.84,-1.49,15.41
24.409472942352295,-13.68,9.07,-2.79,16.64
24.41968584060669,-13.81,8.04,-6.07,17.09
24.442523956298828,-12.36,6.65,-6.76,15.57
24.444010972976685,-11.26,6.64,-2.76,13.36
24.4518039226532,-12.46,4.98,-1.79,13.53
24.45954704284668,-13.83,1.63,-8.13,16.12
24.469482898712158,-12.46,-2.09,-10.82,16.63
24.492541790008545,-13.62,-5.5,-7.83,16.64
24.49403691291809,-15.23,-5.98,-8.83,18.59
24.501998901367188,-16.49,-4.94,-9.64,19.72
24.50974988937378,-20.6,0.85,-8.6,22.33
24.519747972488403,-18.3,4.89,10.28,21.55
24.542859077453613,1.19,6.97,5.86,9.18
24.544352054595947,4.26,11.85,-12.08,17.44
24.5522198677063,7.21,13.76,-16.47,22.64
24.559852123260498,12.19,10.84,-7.86,18.1
24.569798946380615,5.79,6.51,1.04,8.77
24.592767000198364,-4.16,3.64,2.84,6.21
24.594252109527588,-8.05,1.17,-1.21,8.22
24.602051973342896,-9.36,-0.4,-4.58,10.42
24.609853982925415,-5.97,-2.1,-3.21,7.09
24.619933128356934,-1.75,-2.38,0.04,2.95
24.643374919891357,-1.26,-0.68,0.49,1.51
24.644848823547363,-3.59,1.0,-1.2,3.91
24.652063846588135,-5.09,1.63,-1.48,5.54
24.659965991973877,-4.84,1.04,0.23,4.95
24.669790983200073,-4.01,0.21,0.42,4.03
24.69283390045166,-3.42,0.06,-1.74,3.83
24.694314002990723,-2.37,0.25,-1.66,2.9
24.70226812362671,-1.0,0.67,0.28,1.23
24.709897994995117,0.28,0.9,0.07,0.94
24.719895839691162,1.17,0.81,-0.73,1.59
24.74311900138855,1.24,0.69,-0.66,1.56
24.744606018066406,0.76,0.5,-0.13,0.91
24.752288818359375,-0.08,0.18,-0.24,0.31
24.76008701324463,-0.96,-0.15,-0.08,0.97
24.769979000091553,-1.29,-0.35,0.13,1.34
24.79311990737915,-1.1,-0.28,-0.03,1.13
24.79460382461548,-0.73,-0.08,0.04,0.73
24.802398920059204,-0.12,-0.01,0.18,0.21
24.810138940811157,0.61,-0.05,0.22,0.65
24.820117950439453,1.2,0.09,0.48,1.29
24.84318780899048,1.44,0.21,0.59,1.57
24.844676971435547,1.41,0.19,1.11,1.8
24.852349996566772,1.43,0.12,1.3,1.93
24.860217094421387,1.3,0.23,0.73,1.5
24.870033979415894,0.98,0.21,1.12,1.5
24.893258094787598,0.7,0.01,0.56,0.89
24.894762992858887,0.64,-0.01,-0.39,0.74
24.902480125427246,0.72,0.07,-0.45,0.85
24.91020107269287,0.75,0.21,-0.42,0.88
24.920281887054443,0.85,0.34,-0.29,0.96
24.943228006362915,1.0,0.39,-0.14,1.08
24.944698810577393,1.12,0.64,-0.01,1.29
24.952385902404785,1.55,0.94,0.18,1.82
24.960320949554443,2.24,1.1,0.05,2.49
24.970263957977295,2.97,1.19,0.04,3.19
24.993348121643066,3.46,1.44,0.15,3.75
24.99480891227722,3.79,1.86,0.36,4.23
25.00253677368164,4.1,2.15,0.54,4.66
25.010257959365845,4.3,2.49,0.59,5.0
25.020323991775513,4.69,2.87,0.67,5.53
25.043909072875977,5.41,3.22,0.54,6.31
25.04536485671997,6.17,4.07,0.69,7.42
25.052753925323486,6.91,4.99,1.37,8.63
25.06052303314209,7.71,5.82,1.81,9.82
25.070384979248047,8.43,7.14,1.53,11.15
25.093334913253784,8.96,9.32,0.8,12.95
25.09480905532837,9.65,11.23,-0.07,14.8
25.10306978225708,9.63,12.28,-0.25,15.6
25.110890865325928,8.88,12.92,0.41,15.68
25.12082290649414,8.09,13.53,0.46,15.77
25.143948078155518,6.64,14.33,1.96,15.91
25.145428895950317,5.27,14.62,5.11,16.35
25.152935028076172,5.4,13.59,6.4,15.96
25.16070795059204,5.97,12.36,5.64,14.83
25.170605897903442,5.45,11.01,3.93,12.89
25.19357395172119,4.5,9.09,4.05,10.92
25.19503879547119,5.51,5.54,5.64,9.63
25.203078985214233,7.59,1.92,7.16,10.6
25.210705995559692,8.06,1.18,7.96,11.38
25.220622062683105,4.52,1.55,3.7,6.04
25.243696928024292,-0.87,0.21,-2.29,2.45
25.24519681930542,-4.48,-1.07,-2.68,5.32
25.253102779388428,-5.9,-1.21,2.43,6.49
25.26077890396118,0.11,-0.61,6.82,6.84
25.270736932754517,6.6,-2.19,7.8,10.44
25.293970108032227,9.53,-4.32,6.07,12.09
25.295491933822632,10.13,-5.16,4.36,12.17
25.30326199531555,8.7,-4.66,3.33,10.41
25.310862064361572,6.43,-3.87,2.82,8.01
25.320871829986572,4.38,-3.41,2.71,6.17
25.34376287460327,2.74,-3.21,2.75,5.03
25.345252990722656,1.79,-3.15,2.8,4.57
25.35325288772583,1.48,-3.18,2.42,4.26
25.36078190803528,1.68,-3.23,1.98,4.14
25.370770931243896,2.19,-3.35,1.95,4.45
25.393951892852783,2.72,-3.29,2.28,4.83
25.39543890953064,3.01,-3.04,2.47,4.93
25.403339862823486,2.94,-2.58,2.14,4.45
25.41099977493286,2.59,-1.97,1.47,3.57
25.421002864837646,1.87,-1.5,0.79,2.52
25.44400191307068,0.94,-1.2,0.2,1.53
25.445487022399902,-0.07,-0.87,-0.22,0.9
25.453423976898193,-1.02,-0.26,-0.58,1.2
25.460958003997803,-1.7,0.85,-0.81,2.06
25.47093677520752,-2.05,2.47,-1.03,3.37
25.493889808654785,-2.38,4.54,-1.65,5.38
25.49537491798401,-3.16,6.6,-2.58,7.75
25.50353193283081,-4.85,7.91,-3.03,9.76
25.511137008666992,-7.89,8.46,-2.85,11.91
25.52122402191162,-11.03,8.54,-2.67,14.2
25.544173002243042,-13.02,9.04,-2.68,16.07
25.5456600189209,-14.37,9.46,-3.53,17.56
25.553613901138306,-14.87,8.27,-5.18,17.78
25.561348915100098,-13.38,6.54,-5.71,15.94
25.571221828460693,-11.57,5.87,-1.83,13.1
25.594686031341553,-12.17,3.99,-0.17,12.8
25.596170902252197,-12.65,1.0,-5.8,13.95
25.603689908981323,-13.23,-2.61,-9.08,16.25
25.6112699508667,-13.04,-3.98,-7.74,15.67
25.621331930160522,-13.65,-4.38,-9.53,17.21
25.644747972488403,-15.88,-1.67,-13.21,20.72
25.646234035491943,-18.97,6.02,-5.02,20.52
25.653795957565308,-7.23,11.53,8.78,16.19
25.661724090576172,5.58,15.71,-2.58,16.87
25.671372890472412,6.11,14.54,-13.59,20.81
25.694955825805664,7.27,6.03,-8.74,12.86
25.69643783569336,1.13,-0.79,0.19,1.39
25.703778982162476,-6.44,-2.36,2.92,7.45
25.711304903030396,-8.42,-3.19,0.73,9.03
25.72150492668152,-7.9,-1.47,-1.72,8.21
25.7445068359375,-5.78,0.41,-2.1,6.16
25.74598979949951,-2.74,1.66,-2.74,4.21
25.75379705429077,-1.64,2.81,-2.98,4.41
25.761430978775024,-3.71,3.04,-2.35,5.34
25.771281957626343,-5.47,1.5,-2.91,6.37
25.794713973999023,-4.99,-0.11,-1.73,5.28
25.796204090118408,-4.25,-0.34,-2.33,4.85
25.80407190322876,-3.22,-0.58,-1.13,3.46
25.81155300140381,-2.09,-0.19,0.57,2.17
25.821660041809082,-0.63,0.58,0.53,1.0
25.844544887542725,0.87,0.98,1.06,1.68
25.846020936965942,1.58,1.02,0.34,1.91
25.854045867919922,1.06,0.72,-0.24,1.3
25.861799001693726,-0.03,0.22,0.25,0.33
25.871598958969116,-0.92,-0.26,0.05,0.95
25.894885063171387,-1.33,-0.43,-0.28,1.42
25.89637589454651,-1.32,-0.35,-0.14,1.37
25.90405511856079,-1.05,-0.21,-0.07,1.07
25.911773920059204,-0.51,-0.1,-0.01,0.51
25.92169499397278,0.07,-0.12,0.07,0.15
25.94472098350525,0.4,-0.06,0.12,0.42
25.946200847625732,0.46,-0.01,0.09,0.46
25.954012870788574,0.45,-0.01,0.02,0.45
25.961793899536133,0.44,0.05,0.48,0.65
25.9716899394989,0.6,0.13,0.66,0.9
25.995255947113037,0.97,0.16,0.61,1.15
25.996737957000732,1.28,0.35,0.6,1.45
26.00395107269287,1.4,0.42,1.06,1.8
26.011716842651367,1.26,0.18,0.51,1.37
26.02190399169922,1.02,-0.03,-0.19,1.03
26.044843912124634,0.8,-0.1,-0.13,0.81
26.046308040618896,0.67,0.14,0.1,0.69
26.05401611328125,0.89,0.35,0.48,1.07
26.061887979507446,1.36,0.6,0.55,1.58
26.0744948387146,1.79,0.86,0.82,2.14
26.094960927963257,2.24,1.02,0.57,2.52
26.09644389152527,2.74,1.29,0.26,3.03
26.104055881500244,3.28,1.6,0.1,3.65
26.112013816833496,3.77,1.89,0.21,4.22
26.122062921524048,4.17,2.07,0.2,4.65
26.14521098136902,4.33,2.26,0.21,4.88
26.146689891815186,4.55,2.58,0.6,5.26
26.154011964797974,4.95,2.97,0.84,5.83
26.162014961242676,5.62,3.51,0.72,6.66
26.171950817108154,6.41,4.47,0.78,7.85
26.19521188735962,7.27,5.69,1.33,9.32
26.19670295715332,8.14,7.59,1.03,11.17
26.20408797264099,9.3,9.59,1.04,13.39
26.212040901184082,10.3,11.02,0.98,15.11
26.222365856170654,10.69,11.91,0.48,16.01
26.245161056518555,9.69,12.87,0.11,16.11
26.24663996696472,8.09,13.56,1.65,15.87
26.254229068756104,6.1,13.64,1.69,15.03
26.262573957443237,3.44,13.57,3.95,14.54
26.272159099578857,1.65,12.76,6.19,14.27
26.29560899734497,2.51,11.69,5.49,13.15
26.297074794769287,3.93,10.8,3.44,11.99
26.3040828704834,4.53,9.3,3.56,10.94
26.3122239112854,6.04,6.67,5.74,10.67
26.322303771972656,7.41,3.09,7.38,10.9
26.34535312652588,7.31,1.21,7.18,10.31
26.346821784973145,3.8,2.58,3.33,5.67
26.3541259765625,-1.7,0.95,-2.49,3.16
26.362345933914185,-4.62,-1.83,-1.3,5.13
26.372368812561035,-2.41,-1.11,4.57,5.28
26.39574384689331,3.46,0.08,7.42,8.18
26.397217988967896,8.19,-1.57,6.66,10.67
26.404258966445923,10.29,-3.91,4.38,11.84
26.412348985671997,9.63,-4.27,2.89,10.92
26.42247486114502,6.86,-3.69,2.4,8.15
26.445594787597656,4.38,-3.59,2.26,6.09
26.44707202911377,2.88,-3.69,2.48,5.29
26.454258918762207,1.91,-3.83,2.93,5.18
26.46249008178711,1.46,-3.91,2.9,5.08
26.473190784454346,1.55,-3.78,2.58,4.83
26.495584964752197,2.09,-3.57,2.37,4.76
26.497064113616943,2.69,-3.53,2.21,4.95
26.504440784454346,3.11,-3.56,2.36,5.28
26.512521982192993,3.37,-3.36,2.62,5.43
26.522594928741455,3.18,-2.91,2.59,5.02
26.54567003250122,2.67,-2.44,2.2,4.23
26.5471510887146,2.0,-2.02,1.6,3.26
26.55441689491272,1.18,-1.71,1.06,2.33
26.56276297569275,0.3,-1.46,0.67,1.63
26.572685956954956,-0.57,-1.05,0.33,1.23
26.59557795524597,-1.33,-0.38,0.04,1.38
26.597063064575195,-1.84,0.68,-0.09,1.96
26.604609966278076,-2.19,2.13,-0.29,3.06
26.61268711090088,-2.73,3.95,-0.63,4.84
26.62270498275757,-3.89,5.82,-1.24,7.1
26.645951986312866,-5.67,7.41,-1.84,9.51
26.647414922714233,-8.03,8.67,-2.12,12.0
26.65460777282715,-10.5,9.5,-2.24,14.33
26.662750959396362,-11.92,9.53,-2.71,15.5
26.672684907913208,-12.72,9.16,-3.4,16.03
26.69645404815674,-11.02,7.58,-5.58,14.49
26.69792079925537,-9.21,7.03,-6.3,13.18
26.70473599433899,-9.46,6.99,-4.28,12.51
26.71282196044922,-11.68,5.3,-3.8,13.37
26.722891807556152,-11.94,1.77,-7.86,14.4
26.745609998703003,-12.59,-2.12,-11.14,16.94
26.747079849243164,-14.69,-4.98,-9.39,18.13
26.754761934280396,-15.8,-5.37,-8.66,18.8
26.762871980667114,-16.41,-3.52,-12.68,21.03
26.773024082183838,-19.82,3.32,-8.18,21.69
26.796154975891113,-10.7,7.23,5.51,14.04
26.797616958618164,3.75,10.86,1.04,11.53
26.805120944976807,5.08,13.43,-12.73,19.18
26.812971115112305,8.12,11.58,-13.67,19.66
26.822991847991943,10.14,5.91,-4.09,12.42
26.845780849456787,0.89,2.26,3.9,4.59
26.84726905822754,-6.14,0.07,4.2,7.43
26.854933977127075,-8.39,-1.69,0.29,8.56
26.86294984817505,-8.52,-1.69,-2.04,8.92
26.873079776763916,-6.13,-1.27,-2.15,6.61
26.896224975585938,-3.57,0.19,-1.86,4.02
26.897711992263794,-2.84,1.84,-0.95,3.51
26.90502691268921,-3.31,2.25,-2.39,4.66
26.91304898262024,-3.26,1.5,-3.41,4.95
26.923213958740234,-2.87,0.4,-0.98,3.05
26.94623589515686,-2.53,-0.31,-1.05,2.75
26.94771695137024,-2.25,-0.1,-2.01,3.01
26.95498490333557,-1.68,0.52,-0.43,1.81
26.96332597732544,-0.52,0.82,0.46,1.07
26.97317886352539,0.82,0.84,0.05,1.17
26.996567964553833,1.51,0.62,-0.19,1.64
26.998036861419678,1.27,0.4,0.06,1.33
27.005326986312866,0.35,0.21,-0.16,0.43
27.013202905654907,-0.58,0.0,-0.15,0.59
27.023278951644897,-1.23,-0.17,-0.07,1.24
27.04643201828003,-1.44,-0.34,0.19,1.49
27.04790687561035,-1.19,-0.46,0.45,1.35
27.055320978164673,-0.48,-0.45,0.38,0.75
27.06346607208252,0.14,-0.23,0.27,0.38
27.073554039001465,0.49,-0.06,0.37,0.61
27.096789836883545,0.64,-0.01,0.48,0.8
27.098278999328613,0.68,-0.06,0.54,0.87
27.10529398918152,0.7,-0.02,0.43,0.82
27.11337900161743,0.55,0.05,0.41,0.68
27.12437105178833,0.51,0.04,0.36,0.62
27.14651894569397,0.59,0.08,0.2,0.62
27.1480131149292,0.64,0.22,0.28,0.73
27.15537190437317,0.8,0.31,0.81,1.17
27.163460969924927,0.88,0.31,0.42,1.02
27.173587799072266,0.75,0.32,-0.19,0.83
27.19696593284607,0.67,0.47,-0.18,0.83
27.19844889640808,0.74,0.62,-0.29,1.0
27.205549955368042,0.92,0.72,-0.17,1.18
27.213504791259766,1.12,0.74,-0.12,1.34
27.223551988601685,1.36,0.77,-0.22,1.57
27.246795892715454,1.87,0.89,-0.02,2.07
27.248186111450195,2.56,1.19,-0.02,2.82
27.255563974380493,3.27,1.52,-0.01,3.6
27.26371693611145,3.68,1.75,0.23,4.08
27.273612022399902,3.75,1.92,0.31,4.22
27.29686403274536,3.72,2.33,0.51,4.41
27.29832887649536,4.2,2.63,0.74,5.01
27.30579710006714,4.9,2.78,0.51,5.65
27.31370997428894,5.69,3.01,0.34,6.44
27.323770999908447,6.29,3.81,0.72,7.38
27.347118854522705,7.19,5.24,0.98,8.95
27.348593950271606,8.64,7.45,0.09,11.4
27.35572910308838,10.49,10.03,-0.27,14.51
27.363840103149414,11.78,11.33,-0.16,16.34
27.374162912368774,11.22,11.69,-0.1,16.2
27.3973388671875,8.55,12.4,1.34,15.12
27.398826122283936,5.67,13.72,3.21,15.18
27.40612506866455,3.13,14.67,3.86,15.48
27.414076805114746,0.98,14.81,6.11,16.05
27.42393398284912,0.73,12.98,7.87,15.19
27.44705104827881,2.61,10.63,6.03,12.49
27.44852590560913,3.93,9.3,3.78,10.78
27.455862045288086,4.44,8.14,4.11,10.14
27.463911056518555,5.51,5.86,5.99,10.02
27.474074840545654,6.52,2.44,7.67,10.35
27.49719500541687,6.82,0.62,8.06,10.57
27.498653888702393,4.16,1.47,4.15,6.05
27.50594711303711,-0.18,0.17,-1.69,1.7
27.513955116271973,-2.86,-2.45,-0.82,3.85
27.524089813232422,-2.0,-1.87,3.94,4.79
27.547286987304688,1.82,-0.72,6.59,6.87
27.548760890960693,5.44,-1.9,6.28,8.52
27.555980920791626,7.69,-3.19,4.39,9.41
27.564252853393555,8.01,-3.55,2.91,9.23
27.574136972427368,6.72,-3.71,2.14,7.96
27.597055912017822,5.6,-3.77,2.35,7.14
27.59855604171753,4.57,-3.95,3.32,6.89
27.60612392425537,3.44,-4.09,3.75,6.52
27.614169120788574,2.72,-3.92,3.27,5.78
27.624022960662842,2.42,-3.47,2.26,4.79
27.647185802459717,2.44,-3.15,1.42,4.22
27.648648977279663,2.74,-3.12,1.08,4.29
27.65605092048645,3.15,-3.42,1.4,4.85
27.664188861846924,3.5,-3.77,1.94,5.49
27.67423105239868,3.69,-3.82,2.18,5.74
27.69765281677246,3.63,-3.43,1.98,5.37
27.699135780334473,3.26,-2.66,1.38,4.42
27.706398010253906,2.64,-1.94,0.82,3.37
27.714388847351074,1.75,-1.35,0.48,2.26
27.724443912506104,0.86,-0.76,0.29,1.18
27.747695922851562,0.02,0.07,0.06,0.09
27.749181985855103,-0.71,1.35,-0.27,1.54
27.756287097930908,-1.42,3.03,-0.71,3.42
27.764368057250977,-2.33,5.1,-1.29,5.75
27.774456024169922,-3.61,7.3,-1.89,8.36
27.79755210876465,-5.44,9.09,-2.52,10.88
27.79905080795288,-7.92,10.05,-2.86,13.11
27.806667804718018,-10.41,10.06,-2.56,14.7
27.814640998840332,-12.02,9.76,-2.22,15.64
27.824516773223877,-12.77,9.41,-3.7,16.28
27.847346782684326,-11.98,8.03,-7.44,16.22
27.848833084106445,-10.47,7.29,-8.48,15.31
27.856426000595093,-11.21,7.09,-4.51,14.0
27.864524841308594,-12.58,4.57,-3.61,13.86
27.87458086013794,-11.5,0.72,-9.84,15.15
27.897982120513916,-12.83,-3.16,-11.75,17.68
27.899479866027832,-14.84,-5.87,-9.29,18.46
27.90654492378235,-16.39,-4.58,-9.8,19.63
27.91452407836914,-18.15,-1.49,-10.95,21.24
27.924546003341675,-20.71,4.33,-4.26,21.58
27.94749402999878,-7.15,6.76,8.98,13.32
27.948977947235107,4.35,9.91,-2.47,11.1
27.956936836242676,4.91,12.73,-15.47,20.62
27.964598894119263,9.53,11.87,-15.28,21.56
27.974635124206543,11.63,6.56,-2.85,13.65
27.99785804748535,2.25,2.21,7.4,8.04
27.99934482574463,-4.51,-0.7,3.37,5.67
28.00673198699951,-7.29,-2.28,-1.64,7.81
28.014779090881348,-8.6,-1.58,-3.05,9.26
28.024816036224365,-6.46,-1.01,-2.52,7.0
28.048093795776367,-3.73,0.05,-0.84,3.82
28.04958486557007,-2.95,1.48,-0.32,3.31
28.056768894195557,-3.13,2.04,-1.51,4.02
28.064898014068604,-3.06,1.62,-2.97,4.56
28.07500195503235,-2.74,0.52,-1.48,3.15
28.098097801208496,-2.36,-0.35,0.5,2.43
28.09958505630493,-1.75,-0.27,-0.43,1.82
28.10691499710083,-0.94,0.29,-1.32,1.64
28.114803791046143,-0.53,0.88,-0.45,1.12
28.124948978424072,-0.45,1.03,-0.1,1.12
28.14797306060791,-0.39,0.53,-0.51,0.83
28.14945888519287,-0.24,0.1,-0.67,0.71
28.156908988952637,-0.35,0.01,-0.17,0.38
28.16499090194702,-0.61,-0.04,-0.32,0.69
28.17497992515564,-0.83,0.03,-0.3,0.88
28.198169946670532,-0.9,0.09,-0.36,0.97
28.19965887069702,-0.74,0.18,-0.1,0.76
28.20705795288086,-0.34,0.11,-0.05,0.36
28.21502685546875,0.03,0.03,0.02,0.04
28.225186824798584,0.31,-0.07,0.13,0.34
28.247900009155273,0.4,-0.06,0.01,0.4
28.249380111694336,0.43,0.03,0.31,0.53
28.256995916366577,0.47,0.07,0.41,0.62
28.265065908432007,0.35,0.14,0.42,0.56
28.275047779083252,0.35,0.13,0.49,0.61
28.29810094833374,0.61,0.16,0.4,0.74
28.299567937850952,0.91,0.21,0.22,0.95
28.307170867919922,1.04,0.36,0.11,1.1
28.315140962600708,0.96,0.35,0.33,1.07
28.325350999832153,0.76,0.14,-0.5,0.92
28.348284006118774,0.58,0.04,-0.82,1.0
28.34976291656494,0.62,0.12,-0.41,0.75
28.357157945632935,1.0,0.34,-0.27,1.09
28.36516284942627,1.57,0.54,-0.16,1.66
28.375221967697144,2.06,0.69,-0.09,2.17
28.398584842681885,2.37,1.05,0.21,2.6
28.400064945220947,2.97,1.48,0.55,3.36
28.407275915145874,3.6,1.73,0.93,4.1
28.41529607772827,4.09,1.96,1.26,4.7
28.425339937210083,4.58,2.29,1.4,5.3
28.44821310043335,5.05,2.5,1.09,5.73
28.44968295097351,5.35,2.73,0.93,6.07
28.457207918167114,5.66,3.34,1.07,6.65
28.4654541015625,6.28,4.25,1.99,7.83
28.475457906723022,6.88,5.5,2.73,9.22
28.498475074768066,7.6,7.38,2.43,10.86
28.499948978424072,8.67,9.49,1.94,12.99
28.5074520111084,9.76,10.88,1.01,14.65
28.515703916549683,10.29,11.66,0.02,15.55
28.525752067565918,9.42,12.83,-0.45,15.92
28.5485258102417,7.84,14.22,0.6,16.24
28.550014972686768,6.39,14.47,0.95,15.84
28.557429790496826,4.96,13.62,2.46,14.7
28.565650939941406,4.15,12.01,4.51,13.48
28.575554847717285,4.57,10.28,4.46,12.1
28.59875202178955,5.14,8.98,3.12,10.8
28.60022783279419,5.05,7.98,2.42,9.74
28.607664108276367,5.59,5.98,3.92,9.07
28.615580081939697,7.08,2.75,6.14,9.76
28.625940799713135,7.62,-0.12,7.83,10.92
28.64876699447632,4.73,0.55,4.37,6.46
28.650250911712646,-0.25,0.3,-2.91,2.93
28.657578945159912,-2.93,-2.17,-4.14,5.51
28.665767908096313,-1.65,-2.77,0.84,3.33
28.675760984420776,4.15,-1.33,4.85,6.52
28.698808908462524,8.01,-2.45,5.48,10.0
28.700278997421265,8.81,-4.52,3.82,10.61
28.707944869995117,7.41,-5.3,1.89,9.3
28.715732097625732,5.25,-5.1,0.85,7.36
28.725987911224365,3.95,-4.54,0.54,6.04
28.749268054962158,3.73,-4.15,1.57,5.79
28.751134872436523,3.78,-4.14,2.78,6.25
28.757640838623047,3.71,-4.11,3.03,6.31
28.76585578918457,3.54,-3.92,2.46,5.82
28.775949001312256,3.23,-3.75,1.67,5.22
28.798954010009766,3.03,-3.73,1.28,4.97
28.800434112548828,3.15,-3.77,1.47,5.12
28.807783126831055,3.49,-3.67,2.04,5.45
28.815834045410156,3.71,-3.2,2.13,5.34
28.82626485824585,3.52,-2.46,1.44,4.52
28.8490948677063,2.75,-1.64,0.55,3.24
28.85057306289673,1.5,-0.89,-0.02,1.74
28.857762813568115,-0.08,-0.3,-0.21,0.37
28.866050004959106,-1.51,0.47,-0.18,1.59
28.876168966293335,-2.48,1.68,-0.15,2.99
28.899308919906616,-3.05,3.2,-0.17,4.42
28.901144981384277,-3.59,5.15,-0.56,6.3
28.908122062683105,-4.57,7.53,-1.49,8.93
28.916034936904907,-6.54,9.53,-3.0,11.94
28.926416873931885,-9.12,9.92,-4.27,14.13
28.94914197921753,-11.58,9.2,-3.15,15.12
28.950629949569702,-13.44,8.19,-1.64,15.82
28.958058834075928,-13.84,7.2,-3.26,15.93
28.96613097190857,-11.04,6.25,-7.6,14.78
28.976215839385986,-9.57,6.29,-8.16,14.06
28.999248027801514,-11.61,6.28,-3.22,13.58
29.000750064849854,-13.48,3.32,-2.32,14.07
29.008263111114502,-13.42,-0.69,-8.59,15.94
29.016200065612793,-12.25,-4.12,-9.55,16.06
29.0262770652771,-12.7,-4.92,-7.51,15.55
29.04931879043579,-12.71,-3.95,-10.54,16.97
29.05126690864563,-15.48,0.77,-11.33,19.19
29.058230876922607,-15.3,6.23,-1.72,16.6
29.066229820251465,-0.34,7.9,4.59,9.14
29.0763578414917,8.55,12.52,-5.78,16.22
29.09911298751831,10.07,13.94,-13.15,21.64
29.100611925125122,10.54,8.75,-9.38,16.6
29.108269929885864,2.73,3.36,0.0,4.32
29.116315841674805,-4.81,0.25,4.57,6.63
29.12628984451294,-7.65,-2.72,1.03,8.18
29.149159908294678,-8.6,-2.78,-1.93,9.24
29.150633811950684,-7.17,-1.27,-1.92,7.53
29.158411026000977,-4.33,0.1,-0.93,4.42
29.16632890701294,-3.36,1.53,-0.48,3.72
29.176465034484863,-3.89,2.17,-2.28,5.0
29.199350833892822,-3.55,1.71,-4.13,5.7
29.20082187652588,-2.84,0.84,-1.96,3.55
29.20840311050415,-3.07,0.12,-0.21,3.07
29.2164249420166,-3.19,-0.26,-1.45,3.51
29.22641897201538,-2.88,-0.2,-1.48,3.24
29.249390125274658,-1.72,0.23,-0.7,1.87
29.250865936279297,-0.42,0.67,-0.23,0.82
29.258455991744995,0.37,0.72,0.07,0.81
29.266499996185303,0.77,0.49,0.75,1.18
29.276596069335938,0.69,0.27,0.62,0.96
29.299563884735107,0.27,0.08,-0.08,0.29
29.301416873931885,-0.66,-0.06,-0.04,0.66
29.308642864227295,-1.55,-0.23,0.05,1.56
29.31657099723816,-1.86,-0.35,-0.22,1.9
29.326558113098145,-1.35,-0.38,-0.47,1.47
29.34939694404602,-0.53,-0.34,-0.5,0.8
29.350873947143555,0.01,-0.19,0.01,0.19
29.35860300064087,0.34,-0.14,0.13,0.39
29.366675853729248,0.57,-0.2,0.15,0.62
29.37674903869629,0.48,-0.28,0.39,0.67
29.399499893188477,0.35,-0.29,0.43,0.62
29.4013569355011,0.36,-0.28,0.38,0.59
29.408788919448853,0.53,-0.16,0.0,0.55
29.41669511795044,0.64,-0.09,-0.09,0.65
29.426827907562256,0.73,-0.13,0.3,0.79
29.44964599609375,0.96,-0.19,0.26,1.01
29.45145893096924,1.31,-0.2,0.5,1.41
29.45876979827881,1.37,0.03,0.81,1.59
29.466871976852417,1.22,0.18,0.69,1.41
29.476876974105835,1.56,-0.06,0.54,1.65
29.499603986740112,1.89,0.39,0.53,2.0
29.50142478942871,2.16,0.96,0.35,2.38
29.508842945098877,2.74,0.55,-0.07,2.79
29.516840934753418,3.04,0.83,0.26,3.16
29.527060985565186,3.15,1.63,0.84,3.64
29.549779891967773,3.58,2.35,0.46,4.3
29.551604986190796,4.47,2.85,0.34,5.31
29.5589599609375,5.64,3.63,0.06,6.7
29.566951990127563,6.82,4.11,-0.36,7.97
29.57708501815796,6.63,4.75,-0.11,8.15
29.59936809539795,5.12,5.83,0.61,7.78
29.600831985473633,4.64,7.12,1.36,8.6
29.609105110168457,6.34,9.48,2.07,11.59
29.617039918899536,9.31,11.45,2.69,15.0
29.627112865447998,9.52,9.89,0.91,13.75
29.649405002593994,6.0,6.08,-1.76,8.72
29.65087604522705,2.27,5.63,-0.67,6.1
29.659138917922974,0.65,8.85,1.56,9.0
29.66710090637207,1.04,9.98,2.48,10.33
29.677163124084473,0.37,6.06,1.99,6.38
29.69936990737915,-1.7,1.46,1.25,2.56
29.70083999633789,-3.57,-0.79,0.57,3.7
29.70923900604248,-5.27,-1.17,0.25,5.4
29.716899871826172,-6.29,-1.17,1.21,6.51
29.727227926254272,-1.68,-2.27,2.21,3.58
29.75005578994751,3.76,-4.62,3.85,7.09
29.75198197364807,8.35,-7.02,5.7,12.3
29.759131908416748,11.04,-7.84,5.86,14.75
29.767204999923706,9.16,-4.77,2.81,10.7
29.777204990386963,8.58,-2.32,0.93,8.93
29.799683094024658,8.64,-2.09,2.54,9.24
29.80152988433838,6.8,-2.34,3.57,8.02
29.809510946273804,3.47,-2.33,2.57,4.9
29.817328929901123,1.1,-2.43,1.46,3.04
29.827326774597168,0.56,-2.84,1.09,3.09
29.849332809448242,1.69,-2.93,1.41,3.66
29.85079598426819,2.86,-2.61,1.61,4.19
29.859354972839355,3.22,-2.11,1.26,4.05
29.867355823516846,2.89,-1.35,0.59,3.24
29.87751293182373,2.1,-0.49,-0.07,2.15
29.900002002716064,1.04,0.37,-0.4,1.17
29.90180206298828,-0.26,0.81,-0.81,1.17
29.909471035003662,-1.6,0.77,-1.23,2.16
29.91745400428772,-2.86,0.41,-1.75,3.37
29.927594900131226,-4.19,0.19,-2.76,5.02
29.949841022491455,-5.57,0.67,-4.08,6.93
29.951680898666382,-6.91,1.35,-5.25,8.78
29.959537982940674,-8.13,1.85,-5.51,9.99
29.967586994171143,-9.18,2.23,-4.34,10.39
29.977473974227905,-9.83,1.82,-3.33,10.53
29.999828815460205,-10.15,0.51,-3.72,10.82
30.00171995162964,-10.47,0.11,-3.74,11.11
30.00974988937378,-10.0,0.75,-2.3,10.28
30.017574787139893,-8.84,-0.69,-4.86,10.11
30.027692794799805,-8.45,-1.43,-5.57,10.22
30.04981803894043,-9.28,-2.34,-5.63,11.1
30.051682949066162,-9.9,-2.73,-5.35,11.57
30.060041904449463,-11.1,-1.17,-7.08,13.21
30.067659854888916,-14.42,4.23,2.0,15.16
30.077809810638428,-14.76,11.45,2.59,18.85
30.099821090698242,-7.05,13.54,-6.14,16.45
30.101634979248047,3.11,6.87,-5.9,9.57
30.109842777252197,8.8,-1.01,-0.96,8.9
30.11771583557129,10.35,-5.57,-2.1,11.93
30.128075122833252,8.63,-5.85,-2.27,10.67
30.149890899658203,1.51,-1.85,-1.38,2.75
30.15172791481018,-1.69,0.92,0.05,1.92
30.159803867340088,-2.7,1.86,-1.28,3.51
