time,ax,ay,az,atotal
0.006638050079345703,-0.21,0.03,0.0,0.21
0.014865875244140625,-0.24,0.07,-0.18,0.3
0.02376389503479004,0.05,0.09,-0.36,0.37
0.03379201889038086,0.14,0.25,-0.56,0.62
0.04870295524597168,0.04,0.53,-0.8,0.96
0.05546903610229492,-0.16,0.71,-0.87,1.13
0.06451177597045898,-0.18,0.49,-0.57,0.77
0.07332587242126465,-0.18,0.29,-0.08,0.35
0.08386492729187012,-0.13,0.11,0.46,0.49
0.09870576858520508,-0.16,-0.16,0.89,0.91
0.10553288459777832,-0.14,-0.43,1.1,1.18
0.11456108093261719,-0.07,-0.67,0.97,1.18
0.12356281280517578,-0.01,-0.59,0.63,0.86
0.1338639259338379,-0.06,-0.5,0.38,0.63
0.1487560272216797,-0.22,-0.41,0.12,0.48
0.15548086166381836,-0.13,-0.38,-0.1,0.41
0.16477680206298828,0.2,-0.54,-0.19,0.6
0.1738889217376709,0.57,-0.75,-0.31,0.99
0.18399381637573242,0.23,-0.74,-0.5,0.92
0.19982099533081055,-0.1,-0.66,-0.39,0.77
0.20543384552001953,0.11,-0.6,-0.04,0.61
0.21461987495422363,0.23,-0.53,0.33,0.66
0.22374486923217773,0.05,-0.41,0.59,0.72
0.23383593559265137,-0.13,-0.24,0.63,0.68
0.24856901168823242,-0.19,-0.15,0.62,0.66
0.2554740905761719,-0.23,0.03,0.54,0.58
0.2646927833557129,-0.25,0.17,0.48,0.56
0.27370309829711914,-0.59,0.37,0.43,0.81
0.28382086753845215,-0.64,0.54,0.29,0.88
0.2984778881072998,-0.26,0.48,0.31,0.62
0.30557680130004883,-0.3,0.42,0.27,0.58
0.3145759105682373,-0.12,0.33,0.28,0.44
0.32369184494018555,-0.02,0.22,0.26,0.34
0.33374881744384766,0.14,0.18,0.05,0.23
0.3484687805175781,0.22,0.07,-0.22,0.31
0.355881929397583,0.26,-0.1,-0.34,0.43
0.36488795280456543,0.25,-0.21,-0.37,0.49
0.37369680404663086,0.19,-0.22,-0.4,0.49
0.38413286209106445,0.14,-0.13,-0.48,0.51
0.3989579677581787,0.12,0.0,-0.55,0.56
0.4056220054626465,0.12,0.03,-0.48,0.49
0.4147777557373047,0.04,0.02,-0.28,0.28
0.4240589141845703,0.0,-0.09,0.0,0.09
0.43404698371887207,-0.07,-0.26,0.38,0.46
0.4488210678100586,-0.15,-0.33,0.7,0.78
0.45560693740844727,-0.16,-0.32,0.82,0.89
0.46476197242736816,-0.13,-0.26,0.64,0.7
0.4737849235534668,-0.19,-0.1,0.31,0.37
0.48414182662963867,-0.16,0.09,-0.09,0.2
0.49898576736450195,0.0,0.18,-0.44,0.47
0.5059659481048584,0.16,0.16,-0.67,0.7
0.5152168273925781,0.3,0.06,-1.15,1.19
0.5240669250488281,0.45,0.38,-3.83,3.87
0.5341899394989014,0.71,0.52,-1.7,1.91
0.5488810539245605,0.61,0.05,0.77,0.98
0.5558900833129883,-0.2,-0.16,1.87,1.88
0.5647969245910645,-0.79,-0.34,1.98,2.15
0.5740928649902344,-0.75,-0.13,1.44,1.62
0.5883939266204834,-0.76,0.17,1.27,1.48
0.5983028411865234,-0.53,0.33,0.85,1.05
0.6054110527038574,-0.08,0.35,0.24,0.43
0.6148438453674316,0.19,0.34,-0.44,0.58
0.6238229274749756,0.16,0.33,-1.15,1.2
0.6371009349822998,0.1,0.29,-1.48,1.51
0.6479959487915039,0.03,0.22,-1.44,1.45
0.6553249359130859,-0.16,0.07,-1.04,1.05
0.6646528244018555,-0.47,-0.14,-0.54,0.72
0.6738500595092773,-0.66,-0.4,-0.13,0.78
0.686992883682251,-0.72,-0.6,0.16,0.95
0.69809889793396,-0.63,-0.67,0.25,0.95
0.7055408954620361,-0.5,-0.68,0.15,0.85
0.7147769927978516,-0.44,-0.61,-0.21,0.78
0.7238578796386719,-0.39,-0.53,-0.7,0.96
0.7366390228271484,-0.31,-0.47,-1.07,1.2
0.7483258247375488,-0.21,-0.39,-1.19,1.26
0.7556569576263428,-0.11,-0.31,-1.13,1.17
0.7647318840026855,-0.17,-0.32,-1.03,1.09
0.7740509510040283,-0.4,-0.38,-0.94,1.08
0.7866950035095215,-0.69,-0.42,-0.81,1.14
0.7986769676208496,-1.0,-0.44,-0.54,1.21
0.8057589530944824,-1.08,-0.47,-0.26,1.2
0.8147830963134766,-0.95,-0.52,-0.12,1.08
0.8237800598144531,-0.82,-0.5,-0.13,0.96
0.8365468978881836,-0.71,-0.39,-0.31,0.86
0.8489079475402832,-0.61,-0.34,-0.49,0.85
0.8561029434204102,-0.51,-0.32,-0.62,0.86
0.8647580146789551,-0.44,-0.43,-0.74,0.96
0.8738789558410645,-0.27,-0.58,-0.99,1.17
0.8863158226013184,0.14,-0.44,-0.78,0.9
0.8983030319213867,0.11,-0.59,-0.22,0.63
0.905519962310791,0.32,-0.69,-0.34,0.83
0.9146838188171387,0.32,-0.72,-0.15,0.8
0.9239850044250488,0.31,-0.48,-0.12,0.58
0.9365329742431641,0.27,-0.24,-0.09,0.37
0.9482650756835938,0.33,-0.11,0.0,0.34
0.9557127952575684,0.42,0.04,-0.1,0.43
0.9648339748382568,0.48,0.05,-0.2,0.52
0.9740920066833496,0.62,0.03,-0.15,0.63
0.9867467880249023,0.77,0.1,0.07,0.77
0.9988019466400146,0.79,0.2,0.33,0.87
1.0061230659484863,0.8,0.32,0.48,0.98
1.0151119232177734,0.71,0.4,0.65,1.04
1.024324893951416,0.57,0.5,0.92,1.19
1.036949872970581,0.68,0.58,1.14,1.44
1.0488369464874268,0.85,0.52,1.23,1.58
1.0556418895721436,1.07,0.41,1.21,1.66
1.0648069381713867,1.32,0.39,1.16,1.8
1.0740370750427246,1.67,0.44,1.06,2.02
1.0867369174957275,1.93,0.51,0.99,2.22
1.0982749462127686,2.08,0.58,0.95,2.35
1.1054468154907227,2.14,0.63,0.88,2.39
1.1149539947509766,2.32,0.74,0.61,2.51
1.1239590644836426,2.75,1.06,0.49,2.98
1.136775016784668,3.16,1.71,0.78,3.67
1.1483397483825684,3.23,2.46,1.27,4.25
1.1557197570800781,2.94,3.05,1.71,4.56
1.1646249294281006,2.25,3.31,1.56,4.29
1.1739277839660645,2.99,4.59,1.25,5.61
1.1866068840026855,3.14,5.54,1.98,6.66
1.1977338790893555,2.71,5.77,1.42,6.53
1.2054200172424316,1.89,5.63,0.51,5.96
1.214704990386963,1.3,5.65,-0.19,5.8
1.2240867614746094,1.62,6.34,-0.04,6.54
1.2366719245910645,1.3,6.33,0.66,6.49
1.2485909461975098,0.94,5.95,0.61,6.05
1.255690097808838,0.27,5.65,1.21,5.78
1.2648389339447021,-0.4,5.69,1.98,6.03
1.2741069793701172,-1.08,5.35,2.49,5.99
1.2867109775543213,-1.8,4.8,2.61,5.75
1.2981839179992676,-2.14,4.41,2.48,5.49
1.305624008178711,-2.24,4.0,2.27,5.11
1.3148889541625977,-2.19,3.5,1.98,4.57
1.3241899013519287,-1.79,3.11,1.46,3.87
1.3366050720214844,-1.42,2.72,0.82,3.17
1.348618984222412,-1.18,2.26,0.21,2.55
1.355875015258789,-1.12,1.88,-0.12,2.19
1.3650140762329102,-1.33,1.58,0.09,2.06
1.3740389347076416,-1.63,1.36,0.66,2.22
1.3867418766021729,-1.84,1.04,1.02,2.34
1.3987019062042236,-1.99,0.53,1.08,2.32
1.4060840606689453,-2.17,0.06,0.88,2.34
1.415060043334961,-2.37,-0.36,0.72,2.5
1.4241158962249756,-2.49,-0.73,0.52,2.64
1.4369478225708008,-2.7,-1.18,0.16,2.95
1.4485750198364258,-2.88,-1.63,-0.21,3.31
1.4556479454040527,-3.11,-1.88,-0.3,3.64
1.464961051940918,-3.44,-2.11,0.11,4.03
1.4742059707641602,-3.55,-2.42,0.57,4.33
1.4871268272399902,-3.52,-2.74,0.93,4.55
1.4983258247375488,-3.47,-2.96,1.18,4.71
1.5057439804077148,-3.65,-2.94,1.37,4.88
1.5149497985839844,-4.01,-2.88,1.41,5.13
1.5242619514465332,-4.52,-2.92,1.22,5.51
1.536694049835205,-4.75,-2.92,0.79,5.63
1.548658847808838,-4.48,-3.04,0.29,5.42
1.5558888912200928,-4.12,-3.16,-0.27,5.19
1.5649480819702148,-3.89,-3.26,-0.77,5.13
1.5742597579956055,-3.72,-3.44,-0.94,5.15
1.5866260528564453,-3.44,-3.71,-0.93,5.14
1.5982909202575684,-3.24,-3.83,-0.75,5.07
1.6057977676391602,-3.17,-3.8,-0.56,4.98
1.6149358749389648,-3.2,-3.84,-0.57,5.03
1.6244208812713623,-3.29,-3.81,-0.46,5.05
1.6367979049682617,-3.27,-3.59,-0.41,4.87
1.6483609676361084,-3.19,-3.4,-0.56,4.69
1.6557378768920898,-3.06,-3.21,-0.92,4.52
1.6647930145263672,-2.88,-2.97,-1.28,4.33
1.6741108894348145,-2.61,-2.73,-1.34,4.0
1.686439037322998,-2.25,-2.58,-1.28,3.65
1.6979808807373047,-1.96,-2.43,-1.19,3.34
1.7055809497833252,-1.77,-2.24,-1.0,3.02
1.71486496925354,-1.73,-2.14,-0.94,2.9
1.724045753479004,-1.83,-2.1,-0.89,2.92
1.7362680435180664,-1.85,-1.96,-0.61,2.76
1.747847080230713,-1.79,-1.76,-0.31,2.52
1.7555639743804932,-1.83,-1.52,-0.1,2.38
1.764878749847412,-1.84,-1.32,-0.03,2.26
1.774143934249878,-1.82,-1.23,-0.09,2.19
1.7865118980407715,-1.75,-1.21,-0.33,2.15
1.7982988357543945,-1.68,-1.24,-0.63,2.18
1.8058459758758545,-1.61,-1.29,-0.72,2.18
1.8149089813232422,-1.52,-1.34,-0.58,2.1
1.8240668773651123,-1.52,-1.42,-0.44,2.12
1.836364984512329,-1.64,-1.55,-0.34,2.28
1.8478169441223145,-1.7,-1.6,-0.26,2.34
1.855630874633789,-1.86,-1.57,-0.31,2.45
1.8648967742919922,-2.07,-1.49,-0.39,2.58
1.8741750717163086,-2.04,-1.52,-0.41,2.57
1.8863048553466797,-1.75,-1.61,-0.22,2.38
1.8980469703674316,-1.44,-1.42,0.11,2.02
1.9059090614318848,-1.27,-1.04,0.39,1.68
1.9149129390716553,-1.43,-0.58,0.37,1.58
1.92421293258667,-1.7,-0.08,0.01,1.7
1.9365038871765137,-2.05,0.43,-0.55,2.16
1.9481768608093262,-2.27,0.89,-1.14,2.69
1.9557609558105469,-2.16,1.08,-1.58,2.88
1.9650287628173828,-1.72,1.01,-1.76,2.66
1.9743669033050537,-1.21,1.02,-1.66,2.29
1.9863128662109375,-1.08,1.14,-1.32,2.05
1.999135971069336,-1.07,1.34,-0.91,1.94
2.005836009979248,-1.17,1.51,-0.58,1.99
2.015666961669922,-1.31,1.58,-0.32,2.07
2.024439811706543,-1.54,1.56,0.0,2.19
2.036602020263672,-1.65,1.5,0.51,2.28
2.048801898956299,-1.83,1.36,1.14,2.54
2.0559868812561035,-2.0,1.55,1.13,2.77
2.0654540061950684,-1.39,2.56,1.05,3.09
2.074532985687256,-1.37,2.89,1.63,3.58
2.086570978164673,-1.36,2.84,0.92,3.28
2.098984956741333,-1.42,2.77,0.5,3.15
2.1059350967407227,-1.27,2.7,0.62,3.04
2.115635871887207,-0.72,2.82,0.88,3.04
2.124499797821045,-0.4,3.14,1.07,3.34
2.1365039348602295,-0.45,3.34,0.99,3.51
2.149075984954834,-0.6,3.43,0.62,3.53
2.1557908058166504,-0.71,3.53,0.18,3.6
2.165510892868042,-0.46,3.39,-0.25,3.43
2.174433946609497,0.15,3.16,-0.49,3.2
2.1865720748901367,0.77,3.04,-0.39,3.16
2.198791980743408,1.26,2.95,-0.23,3.21
2.2057437896728516,1.49,2.79,-0.03,3.16
2.2155590057373047,1.47,2.63,0.2,3.01
2.2242228984832764,1.47,2.6,0.46,3.02
2.2365307807922363,1.52,2.64,0.82,3.15
2.248610019683838,1.6,2.54,1.12,3.2
2.2558538913726807,1.71,2.31,1.29,3.15
2.2653229236602783,1.76,2.22,1.37,3.14
2.2743968963623047,1.94,2.33,1.32,3.3
2.286214828491211,2.26,2.4,1.14,3.48
2.2981019020080566,2.45,2.41,1.06,3.59
2.3057758808135986,2.55,2.53,1.11,3.75
2.3155508041381836,2.71,2.59,1.1,3.9
2.3244059085845947,2.92,2.52,0.89,3.95
2.3361029624938965,3.14,2.4,0.51,3.98
2.3489179611206055,3.18,2.29,0.26,3.92
2.3558859825134277,3.15,2.25,0.22,3.87
2.365557909011841,3.05,2.1,0.35,3.71
2.3743479251861572,2.76,1.94,0.59,3.42
2.386295795440674,2.71,1.95,0.94,3.46
2.3985769748687744,2.77,2.01,1.32,3.66
2.405816078186035,2.58,2.03,1.54,3.62
2.415371894836426,2.33,2.2,1.75,3.65
2.4243669509887695,2.09,2.44,1.98,3.77
2.436234951019287,2.01,2.5,2.02,3.79
2.4485058784484863,1.88,2.38,2.05,3.66
2.4557559490203857,1.7,2.16,2.11,3.46
2.4655418395996094,2.01,2.35,1.83,3.59
2.4744367599487305,2.02,2.56,2.31,3.99
2.486401081085205,1.72,2.63,2.37,3.93
2.4988350868225098,1.5,2.59,2.2,3.71
2.505945920944214,1.33,2.33,2.09,3.4
2.5155210494995117,1.45,2.13,2.01,3.26
2.524517059326172,1.57,1.99,2.03,3.24
2.5362868309020996,1.41,1.83,1.89,2.98
2.5487589836120605,0.87,1.9,1.75,2.72
2.555863857269287,0.36,2.22,1.59,2.75
2.565605878829956,-0.14,2.43,1.17,2.7
2.5744948387145996,-0.67,2.5,0.76,2.69
2.586091995239258,-0.92,2.49,0.5,2.7
2.598726749420166,-0.84,2.44,0.35,2.6
2.6058859825134277,-0.52,2.41,0.33,2.48
2.6155359745025635,-0.79,2.09,0.4,2.26
2.624523878097534,-1.33,1.85,0.12,2.28
2.635938882827759,-1.2,2.61,0.04,2.87
2.648800849914551,-1.83,2.91,0.74,3.51
2.656010866165161,-2.31,3.0,0.31,3.79
2.6657779216766357,-2.76,2.91,-0.15,4.01
2.6745290756225586,-3.14,2.72,-0.47,4.18
2.6862828731536865,-3.21,2.57,-0.82,4.19
2.698931932449341,-3.09,2.35,-1.06,4.02
2.7060937881469727,-2.78,2.14,-1.11,3.67
2.71577787399292,-2.83,1.82,-1.09,3.53
2.724626064300537,-3.08,1.31,-1.49,3.66
2.735719919204712,-2.77,1.02,-1.49,3.3
2.748729944229126,-3.16,0.21,-0.9,3.29
2.756021022796631,-2.96,-0.33,-0.82,3.08
2.765683889389038,-2.84,-0.93,-0.04,2.98
2.7746100425720215,-2.75,-1.1,0.55,3.01
2.7859268188476562,-2.84,-1.08,0.91,3.17
2.798855781555176,-3.05,-1.09,0.9,3.36
2.806057929992676,-3.3,-1.19,0.53,3.54
2.815825939178467,-3.4,-1.37,-0.02,3.66
2.824680805206299,-3.23,-1.59,-0.53,3.63
2.8358819484710693,-2.88,-1.79,-0.97,3.52
2.848978042602539,-2.51,-2.02,-1.31,3.47
2.8559727668762207,-2.25,-2.27,-1.42,3.49
2.8659188747406006,-2.19,-2.47,-1.42,3.59
2.8746590614318848,-2.28,-2.65,-1.11,3.66
2.8861749172210693,-2.31,-2.78,-0.67,3.67
2.8988280296325684,-2.35,-2.79,-0.32,3.66
2.9063119888305664,-2.41,-2.85,-0.21,3.73
2.915771007537842,-2.53,-2.98,-0.34,3.92
2.9247608184814453,-2.57,-3.05,-0.57,4.02
2.9362430572509766,-2.55,-2.99,-0.69,3.98
2.949173927307129,-2.52,-2.91,-0.81,3.93
2.9560117721557617,-2.42,-2.91,-0.89,3.88
2.9660139083862305,-2.32,-3.01,-0.93,3.91
2.9746179580688477,-2.18,-3.27,-0.89,4.02
2.9861598014831543,-2.04,-3.44,-0.73,4.06
2.9987099170684814,-1.89,-3.45,-0.58,3.97
3.006121873855591,-1.91,-3.5,-0.41,4.0
3.0156750679016113,-2.14,-3.57,-0.18,4.16
3.0247879028320312,-2.4,-3.63,0.12,4.35
3.0357489585876465,-2.5,-3.73,0.4,4.5
3.0489420890808105,-2.41,-3.9,0.56,4.61
3.0561537742614746,-2.21,-4.07,0.64,4.67
3.0659470558166504,-2.17,-4.18,0.59,4.74
3.0747218132019043,-2.41,-4.26,0.42,4.91
3.086012840270996,-2.58,-4.24,0.23,4.96
3.099228858947754,-2.35,-4.18,0.09,4.79
3.1063969135284424,-1.98,-4.05,0.16,4.51
3.1161279678344727,-1.85,-3.65,0.3,4.1
3.12496280670166,-1.8,-3.22,0.36,3.7
3.136291027069092,-1.87,-3.01,0.23,3.55
3.1494860649108887,-1.94,-2.94,-0.03,3.52
3.156445026397705,-1.77,-2.76,-0.29,3.29
3.16611909866333,-1.59,-2.51,-0.46,3.0
3.1746788024902344,-1.58,-2.32,-0.43,2.83
3.1857619285583496,-1.51,-2.01,-0.31,2.53
3.1992099285125732,-1.55,-1.43,-0.18,2.11
3.206249952316284,-1.62,-0.92,-0.14,1.86
3.2157998085021973,-1.61,-0.64,-0.3,1.75
3.224716901779175,-1.67,-0.45,-0.63,1.84
3.2364120483398438,-1.83,-0.28,-0.93,2.07
3.248922824859619,-1.91,-0.11,-1.15,2.23
3.2563369274139404,-1.97,0.0,-1.18,2.29
3.265967845916748,-2.08,0.07,-1.21,2.4
3.274871826171875,-2.23,0.21,-1.01,2.45
3.285946846008301,-2.17,0.52,-0.71,2.34
3.2993879318237305,-2.15,0.97,-0.4,2.39
3.3063368797302246,-2.15,1.29,-0.16,2.51
3.316411018371582,-2.3,1.61,-0.21,2.81
3.3251709938049316,-2.71,1.91,-0.32,3.33
3.3361940383911133,-3.06,2.13,-0.39,3.74
3.349864959716797,-3.29,2.33,-0.48,4.05
3.3565239906311035,-3.37,2.34,-0.49,4.13
3.366306781768799,-3.2,2.23,-0.42,3.92
3.3751111030578613,-2.87,2.38,-0.39,3.74
3.386117935180664,-2.48,2.58,-0.46,3.6
3.3998217582702637,-2.16,2.7,-0.52,3.49
3.406848907470703,-1.79,2.77,-0.45,3.32
3.416347026824951,-1.62,2.81,-0.29,3.25
3.4251370429992676,-1.52,2.95,-0.06,3.31
3.4362058639526367,-1.36,2.96,0.06,3.25
3.4500958919525146,-1.28,2.8,0.14,3.08
3.456948757171631,-1.13,2.69,0.26,2.92
3.466430902481079,-0.56,2.68,0.18,2.74
3.474930763244629,-0.19,2.72,0.2,2.73
3.4864368438720703,-0.1,2.66,0.52,2.71
3.499635934829712,0.08,2.65,0.95,2.81
3.5066449642181396,0.44,2.78,1.16,3.04
3.516051769256592,0.91,2.96,1.3,3.35
3.5252459049224854,1.43,3.1,1.39,3.68
3.5363359451293945,1.63,3.2,1.27,3.8
3.5499019622802734,1.57,3.27,1.12,3.79
3.55645489692688,1.73,3.27,0.91,3.8
3.56646990776062,2.03,3.21,0.78,3.87
3.575124979019165,2.35,3.15,0.57,3.97
3.5862839221954346,2.6,3.02,0.36,4.0
3.5996899604797363,2.68,2.98,0.26,4.01
3.606502056121826,2.72,3.14,0.1,4.15
3.616147994995117,2.91,3.34,-0.02,4.42
3.6248860359191895,3.1,3.35,-0.03,4.56
3.6358449459075928,3.04,3.12,-0.07,4.35
3.649393081665039,2.9,2.84,-0.16,4.06
3.6563057899475098,2.81,2.72,-0.11,3.91
3.6661128997802734,2.86,2.68,-0.03,3.91
3.674820899963379,2.97,2.54,-0.03,3.9
3.6865110397338867,3.07,2.42,0.35,3.92
3.6992788314819336,3.08,2.44,1.0,4.05
3.7065677642822266,2.85,2.38,1.68,4.07
3.716125011444092,2.49,2.15,2.18,3.94
3.7251620292663574,2.25,1.86,2.48,3.83
3.7361397743225098,2.15,1.7,2.76,3.88
3.749539852142334,1.99,1.85,3.08,4.1
3.756624937057495,1.94,2.01,3.24,4.27
3.7663331031799316,2.18,1.97,3.16,4.31
3.775059938430786,2.32,1.87,2.85,4.12
3.785891056060791,2.33,1.85,2.51,3.89
3.7993850708007812,2.39,2.0,2.24,3.83
3.8066530227661133,2.75,2.38,1.92,4.11
3.8162288665771484,2.85,2.75,1.72,4.31
3.825119972229004,2.56,2.96,1.47,4.18
3.835819959640503,2.25,3.12,1.19,4.02
3.8496828079223633,2.05,3.28,1.04,4.0
3.8567757606506348,1.72,3.31,0.95,3.84
3.866396903991699,1.12,3.26,0.62,3.5
3.8754758834838867,0.54,3.47,-0.02,3.51
3.886077880859375,0.28,3.9,-0.79,3.98
3.899807929992676,0.14,4.05,-1.77,4.42
3.906827926635742,-0.07,3.82,-2.48,4.55
3.9163780212402344,-0.23,3.63,-2.58,4.45
3.9251489639282227,-0.29,3.44,-2.03,4.0
3.9359560012817383,-0.17,3.38,-1.28,3.61
3.9496750831604004,-0.29,3.39,-0.73,3.47
3.956629753112793,-0.57,3.22,-0.63,3.33
3.966207981109619,-0.85,2.98,-0.79,3.19
3.9750919342041016,-1.25,2.99,-0.61,3.29
3.9858040809631348,-1.79,2.96,-0.29,3.47
3.9991419315338135,-2.09,2.81,-0.01,3.5
4.006411075592041,-2.02,2.75,0.35,3.43
4.015906810760498,-2.19,2.7,0.63,3.53
4.024980068206787,-2.51,2.66,0.64,3.71
4.035420894622803,-2.86,2.39,0.65,3.78
4.049118995666504,-2.7,2.14,0.36,3.46
4.056535959243774,-2.51,1.94,0.43,3.2
4.06610107421875,-2.57,1.69,0.68,3.15
4.075039863586426,-2.87,1.42,0.91,3.32
4.085550785064697,-3.23,1.19,0.97,3.57
4.099605083465576,-3.56,0.84,0.72,3.72
4.107007026672363,-3.74,0.38,0.26,3.76
4.1162238121032715,-3.74,-0.05,-0.08,3.74
4.12559175491333,-3.72,-0.5,-0.19,3.75
4.135802984237671,-3.64,-1.08,-0.12,3.79
4.1496968269348145,-3.61,-1.77,0.1,4.02
4.156905889511108,-3.85,-2.24,0.37,4.46
4.16637396812439,-4.05,-2.54,0.6,4.81
4.175096035003662,-4.07,-2.85,0.6,5.0
4.185582876205444,-4.11,-3.2,0.42,5.22
4.199537754058838,-4.29,-3.55,0.36,5.57
4.20659875869751,-4.36,-3.91,0.39,5.86
4.21648097038269,-4.29,-4.18,0.49,6.0
4.225245952606201,-4.07,-4.44,0.49,6.04
4.236056804656982,-3.79,-4.73,0.32,6.06
4.249949932098389,-3.55,-4.83,0.03,5.99
4.257002830505371,-3.38,-4.78,-0.37,5.86
4.266851902008057,-3.23,-4.73,-0.89,5.79
4.275487899780273,-3.16,-4.5,-1.33,5.65
4.285943031311035,-3.02,-4.27,-1.62,5.47
4.300127983093262,-2.85,-4.04,-1.66,5.21
4.307030916213989,-2.77,-3.88,-1.5,4.99
4.316634893417358,-2.84,-3.7,-1.36,4.85
4.325591087341309,-3.0,-3.63,-1.16,4.84
4.335478782653809,-3.02,-3.57,-0.91,4.76
4.349672794342041,-2.98,-3.34,-0.56,4.51
4.356864929199219,-2.93,-3.1,-0.29,4.27
4.36634087562561,-2.81,-2.92,-0.2,4.05
4.375476837158203,-2.63,-2.78,-0.26,3.83
4.385427951812744,-2.4,-2.61,-0.34,3.56
4.399690866470337,-2.26,-2.46,-0.35,3.35
4.406786918640137,-2.33,-2.22,-0.49,3.25
4.416377067565918,-2.47,-2.02,-0.73,3.27
4.425407886505127,-2.38,-1.81,-1.07,3.17
4.4353227615356445,-2.14,-1.76,-1.31,3.06
4.44983696937561,-1.88,-1.78,-1.19,2.84
4.456843852996826,-1.66,-1.78,-0.81,2.56
4.466671943664551,-1.61,-1.8,-0.43,2.45
4.475545883178711,-1.73,-1.83,-0.21,2.52
4.48540997505188,-1.83,-1.72,-0.07,2.51
4.499937057495117,-1.81,-1.66,0.14,2.45
4.5071399211883545,-1.7,-1.77,0.23,2.46
4.51661491394043,-1.54,-1.62,0.3,2.25
4.525591850280762,-1.69,-1.2,0.37,2.1
4.535476922988892,-2.16,-0.96,0.42,2.4
4.549828052520752,-2.52,-0.95,0.28,2.7
4.557175874710083,-2.46,-1.05,-0.01,2.67
4.566726922988892,-2.08,-1.11,-0.19,2.36
4.575594902038574,-1.74,-1.2,-0.28,2.13
4.585326910018921,-1.7,-1.32,-0.28,2.17
4.6003499031066895,-1.72,-1.36,-0.25,2.2
4.607256889343262,-1.71,-0.93,-0.26,1.96
4.616471767425537,-1.81,-0.24,-0.17,1.83
4.6256608963012695,-2.12,0.28,0.02,2.13
4.635831832885742,-2.56,0.71,0.05,2.65
4.65036678314209,-2.89,1.08,0.04,3.08
4.657138824462891,-2.89,1.37,-0.05,3.19
4.666536808013916,-2.7,1.51,-0.1,3.09
4.6754961013793945,-2.37,1.81,-0.15,2.98
4.685754776000977,-1.77,2.44,0.09,3.01
4.6995320320129395,-1.34,3.19,0.33,3.47
4.706854820251465,-1.29,3.7,0.34,3.93
4.716404914855957,-1.53,3.88,0.16,4.17
4.72550892829895,-1.89,3.97,0.02,4.39
4.73564887046814,-1.88,4.02,0.0,4.43
4.749523878097534,-1.53,3.94,0.06,4.22
4.756764888763428,-1.15,3.65,0.07,3.82
4.766397953033447,-0.79,3.19,0.08,3.28
4.7754199504852295,-0.44,2.77,0.25,2.81
4.785304069519043,-0.12,2.54,0.55,2.6
4.7993409633636475,0.01,2.34,0.85,2.48
4.806721925735474,-0.02,2.16,1.1,2.42
4.816277980804443,0.21,1.96,1.19,2.3
4.8254029750823975,0.32,1.89,1.24,2.28
4.835227966308594,0.8,1.84,1.35,2.41
4.849535942077637,1.09,1.73,1.39,2.47
4.856988906860352,1.23,1.93,1.37,2.66
4.866352081298828,1.33,2.52,1.24,3.1
4.875633955001831,1.5,3.06,1.1,3.58
4.885508060455322,1.81,3.31,0.69,3.83
4.899490833282471,2.03,3.49,0.01,4.03
4.907028913497925,2.28,3.65,-0.59,4.34
4.916319847106934,2.61,3.73,-0.97,4.65
4.925603866577148,2.86,3.68,-1.15,4.8
4.935450077056885,2.97,3.5,-1.12,4.72
4.9499897956848145,2.9,3.47,-0.83,4.59
4.957084894180298,3.0,3.61,-0.39,4.71
4.966346979141235,3.22,3.6,-0.01,4.82
4.975642919540405,3.19,3.56,0.25,4.78
4.98566198348999,3.16,3.45,0.53,4.7
4.999922752380371,3.29,3.21,0.79,4.66
5.006990909576416,3.43,3.06,0.96,4.69
5.016284942626953,3.44,3.0,1.08,4.69
5.025564908981323,3.44,2.79,1.15,4.57
5.0354979038238525,3.35,2.65,1.14,4.42
5.0499420166015625,3.28,2.61,1.22,4.36
5.057167053222656,3.17,2.57,1.33,4.29
5.066335916519165,2.9,2.48,1.37,4.05
5.075643062591553,2.84,2.29,1.42,3.91
5.0855629444122314,2.98,2.16,1.57,4.0
5.099843978881836,3.12,2.21,1.73,4.19
5.107106924057007,2.94,2.3,1.87,4.17
5.1162378787994385,2.4,2.35,1.89,3.85
5.125792026519775,1.82,2.6,1.61,3.55
5.135535955429077,1.56,2.96,1.24,3.56
5.149748802185059,1.34,3.23,0.83,3.59
5.157218933105469,1.12,3.45,0.31,3.64
5.166409969329834,0.87,3.57,-0.22,3.68
5.175719976425171,0.63,3.61,-0.66,3.72
5.1856529712677,0.69,3.48,-0.83,3.64
5.199915885925293,0.66,3.08,-0.7,3.22
5.207067012786865,0.56,2.87,-0.35,2.94
5.216401100158691,0.72,2.97,0.14,3.05
5.225679874420166,0.42,3.0,0.46,3.06
5.235590934753418,-0.18,2.94,0.52,2.99
5.249876022338867,-0.64,2.89,0.48,2.99
5.257250785827637,-0.95,2.75,0.34,2.92
5.266432762145996,-0.97,2.56,-0.09,2.73
5.275641918182373,-0.95,2.54,-0.52,2.76
5.285668849945068,-1.13,2.65,-0.83,2.99
5.299799919128418,-1.27,2.71,-1.13,3.19
5.307255983352661,-1.42,2.65,-1.19,3.23
5.316454887390137,-1.57,2.35,-1.13,3.04
5.325756072998047,-1.59,1.92,-1.02,2.69
5.3356568813323975,-1.57,1.62,-0.75,2.37
5.349761962890625,-1.65,1.34,-0.45,2.17
5.3571929931640625,-1.93,1.01,-0.15,2.18
5.3664939403533936,-2.04,0.67,0.12,2.15
5.375858783721924,-2.22,0.26,0.39,2.26
5.385751962661743,-2.55,-0.06,0.73,2.65
5.400146961212158,-2.71,-0.27,0.79,2.83
5.4072370529174805,-3.11,-0.45,0.66,3.21
5.416491985321045,-3.26,-0.54,0.47,3.33
5.425779819488525,-2.84,-0.79,0.03,2.94
5.4358649253845215,-2.58,-1.24,-0.35,2.88
5.450170040130615,-2.52,-1.62,-0.38,3.01
5.457279920578003,-2.62,-1.86,-0.12,3.21
5.466890811920166,-2.98,-1.88,0.14,3.52
5.475980758666992,-3.57,-1.9,0.39,4.06
5.485905885696411,-3.72,-1.79,0.61,4.17
5.499898910522461,-3.81,-1.82,0.68,4.27
5.507312774658203,-3.91,-1.94,0.66,4.41
5.516534805297852,-3.88,-2.25,0.69,4.53
5.525947093963623,-4.02,-2.43,0.48,4.72
5.535577774047852,-4.02,-2.56,0.15,4.76
5.550343990325928,-3.68,-2.68,-0.12,4.55
5.557488918304443,-3.31,-2.78,-0.19,4.32
5.566575050354004,-2.93,-2.82,-0.51,4.09
5.575879096984863,-2.75,-2.8,-0.64,3.97
5.585999011993408,-2.89,-2.77,-0.66,4.05
5.600092887878418,-3.3,-2.76,-0.59,4.34
5.607337951660156,-3.62,-2.83,-0.36,4.6
5.616573810577393,-3.78,-2.97,-0.12,4.8
5.625808954238892,-3.69,-3.04,0.12,4.78
5.635868072509766,-3.39,-2.9,0.31,4.47
5.650252819061279,-3.23,-2.79,0.37,4.28
5.657311916351318,-3.2,-2.8,0.23,4.25
5.666744947433472,-3.02,-2.85,0.22,4.15
5.67588996887207,-2.73,-2.86,0.18,3.95
5.68581485748291,-2.5,-2.99,0.1,3.89
5.699883937835693,-2.47,-2.99,-0.09,3.87
5.707244873046875,-2.49,-2.79,-0.27,3.74
5.716723918914795,-2.47,-2.65,-0.4,3.64
5.725939750671387,-2.53,-2.63,-0.63,3.7
5.735943794250488,-2.48,-2.71,-0.76,3.75
5.750105857849121,-2.17,-2.73,-0.64,3.54
5.75744891166687,-1.85,-2.59,-0.38,3.2
5.766739845275879,-1.83,-2.36,-0.26,2.99
5.776092052459717,-1.82,-2.25,-0.32,2.91
5.786084890365601,-1.69,-2.22,-0.5,2.83
5.800234794616699,-1.62,-2.19,-0.64,2.79
5.807415962219238,-1.72,-1.95,-0.61,2.67
5.816777944564819,-1.75,-1.76,-0.51,2.53
5.826161861419678,-1.72,-1.67,-0.32,2.41
5.836082935333252,-1.57,-1.66,0.13,2.28
5.850428104400635,-1.29,-1.55,0.6,2.1
5.857553958892822,-1.04,-1.39,0.95,1.97
5.8668928146362305,-0.87,-1.27,1.19,1.94
5.87608003616333,-0.9,-1.12,1.23,1.89
5.886086940765381,-1.09,-0.75,1.23,1.8
5.900357961654663,-1.3,-0.11,1.27,1.82
5.907542943954468,-1.38,0.45,1.01,1.76
5.916838884353638,-1.53,0.89,0.38,1.81
5.9261860847473145,-1.76,1.4,-0.28,2.26
5.936007022857666,-1.84,1.88,-0.59,2.69
5.950455904006958,-1.73,2.22,-0.69,2.89
5.957790851593018,-1.59,2.58,-0.74,3.11
5.967066764831543,-1.36,2.76,-0.63,3.14
5.975899934768677,-0.93,2.76,-0.53,2.96
5.986243963241577,-0.54,2.88,-0.55,2.98
6.00059700012207,-0.56,3.11,-0.59,3.21
6.00755500793457,-0.76,3.37,-0.61,3.5
6.016984939575195,-0.92,3.35,-0.77,3.55
6.026144981384277,-1.06,3.14,-0.89,3.43
6.035984039306641,-0.8,3.13,-0.77,3.32
6.050473928451538,-0.45,3.05,-0.56,3.13
6.057592868804932,-0.19,2.86,-0.42,2.89
6.066835880279541,0.18,2.86,-0.2,2.87
6.076111793518066,0.38,3.03,0.09,3.05
6.086352825164795,0.16,3.16,0.35,3.18
6.100756883621216,-0.24,3.19,0.55,3.24
6.107898950576782,-0.35,2.84,0.52,2.9
6.117049932479858,0.06,2.15,0.35,2.17
6.126261949539185,0.81,1.64,0.2,1.84
6.136106014251709,1.36,1.45,0.25,2.0
6.150597095489502,1.6,1.35,0.35,2.12
6.157721996307373,1.48,1.32,0.47,2.03
6.1671528816223145,1.35,1.38,0.53,2.0
6.176243782043457,1.4,1.21,0.54,1.92
6.186352968215942,1.69,0.83,0.66,1.99
6.200666904449463,2.16,0.68,1.01,2.47
6.207796096801758,2.45,0.84,1.4,2.94
6.217017889022827,2.58,0.96,1.63,3.19
6.226440906524658,2.61,0.97,1.61,3.21
6.236123085021973,2.82,1.01,1.47,3.33
6.2510857582092285,3.27,1.16,1.22,3.67
6.2579779624938965,3.59,1.28,0.81,3.89
6.267464876174927,3.66,1.42,0.39,3.94
6.276392936706543,3.68,1.6,0.08,4.01
6.286664009094238,3.85,1.66,-0.09,4.19
6.301074981689453,4.07,1.61,-0.01,4.37
6.307978868484497,4.25,1.66,0.44,4.58
6.316947937011719,4.25,1.75,1.04,4.71
6.326580047607422,4.02,1.88,1.43,4.66
6.336354970932007,3.49,2.23,1.6,4.43
6.350778102874756,2.96,2.75,1.71,4.38
6.357926845550537,2.59,3.03,1.72,4.34
6.367218017578125,2.37,2.98,1.47,4.08
6.376275062561035,2.46,2.82,1.04,3.88
6.386409759521484,2.82,2.73,0.72,3.99
6.4007298946380615,3.11,2.62,0.41,4.08
6.407757759094238,3.09,2.39,0.03,3.9
6.417173862457275,2.98,2.06,-0.18,3.62
6.426538944244385,2.76,1.71,-0.26,3.25
6.436479091644287,2.75,1.57,-0.23,3.17
6.450807094573975,2.66,1.65,-0.07,3.13
6.457977771759033,2.23,1.79,-0.14,2.86
6.4672019481658936,1.84,1.92,-0.32,2.67
6.47633695602417,1.47,2.03,-0.49,2.55
6.486487865447998,1.15,1.97,-0.64,2.36
6.500881910324097,0.75,1.88,-0.62,2.11
6.507989883422852,0.3,2.14,-0.36,2.19
6.5172789096832275,-0.01,2.37,0.06,2.37
6.526586055755615,-0.32,2.24,0.15,2.26
6.536366939544678,-0.63,1.97,0.08,2.06
6.550977945327759,-0.81,1.83,0.2,2.01
6.558046817779541,-1.01,1.94,0.41,2.22
6.567404747009277,-1.55,2.34,0.65,2.88
6.576398849487305,-2.09,2.76,0.94,3.58
6.5865278244018555,-2.41,2.9,1.09,3.92
6.600892066955566,-2.76,2.78,0.98,4.03
6.608020782470703,-2.83,2.51,0.76,3.85
6.6172709465026855,-2.89,2.18,0.4,3.64
6.626443862915039,-2.92,1.99,-0.08,3.53
6.636470794677734,-2.93,1.75,-0.45,3.44
6.650723934173584,-2.89,1.28,-0.73,3.24
6.657814979553223,-2.84,0.83,-0.89,3.08
6.667153835296631,-2.77,0.51,-0.85,2.94
6.676239967346191,-2.64,0.16,-0.67,2.72
6.686502933502197,-2.65,-0.15,-0.54,2.7
6.70069694519043,-2.78,-0.42,-0.35,2.83
6.707788944244385,-2.9,-0.78,-0.17,3.0
6.717190980911255,-3.15,-1.16,-0.15,3.36
6.7263617515563965,-3.39,-1.48,-0.09,3.7
6.736250877380371,-3.47,-1.84,0.08,3.92
6.750525951385498,-3.36,-2.25,0.19,4.04
6.75785493850708,-3.05,-2.54,0.25,3.97
6.767110824584961,-2.81,-2.75,0.23,3.93
6.776330947875977,-2.78,-2.93,0.18,4.04
6.786542892456055,-2.8,-3.12,0.1,4.19
6.800806999206543,-2.85,-3.35,0.0,4.39
6.807912826538086,-2.97,-3.5,-0.14,4.59
6.8174028396606445,-3.01,-3.55,-0.22,4.65
6.826641082763672,-2.83,-3.62,-0.2,4.59
6.8366758823394775,-2.6,-3.73,-0.18,4.55
6.851011753082275,-2.46,-3.82,-0.09,4.54
6.858013868331909,-2.53,-3.85,0.04,4.6
6.867330074310303,-2.68,-3.84,0.22,4.68
6.876555919647217,-2.86,-3.85,0.41,4.81
6.886606931686401,-2.93,-3.89,0.51,4.89
6.9006028175354,-2.71,-3.86,0.53,4.74
6.907980918884277,-2.38,-3.84,0.54,4.54
6.917081832885742,-2.27,-3.84,0.42,4.48
6.9265968799591064,-2.4,-3.7,0.35,4.42
6.936691761016846,-2.44,-3.44,0.41,4.23
6.95072603225708,-2.41,-3.13,0.43,3.97
6.958014011383057,-2.4,-2.97,0.32,3.83
6.96729588508606,-2.32,-2.74,0.16,3.59
6.976475954055786,-2.26,-2.4,-0.02,3.29
6.986571788787842,-2.21,-2.11,-0.19,3.06
7.000546932220459,-2.21,-1.93,-0.43,2.96
7.007969856262207,-2.26,-1.83,-0.53,2.95
7.017212867736816,-2.17,-1.79,-0.36,2.83
7.026515960693359,-2.14,-1.68,-0.19,2.72
7.036481857299805,-2.26,-1.57,-0.09,2.75
7.050321102142334,-2.42,-1.43,-0.07,2.81
7.0579657554626465,-2.59,-1.28,-0.08,2.89
7.067255973815918,-2.65,-1.19,-0.03,2.9
7.07662296295166,-2.23,-1.18,0.15,2.52
7.086589813232422,-2.09,-1.13,0.18,2.38
7.100600957870483,-2.17,-0.91,0.34,2.37
7.108020782470703,-2.28,-0.43,0.29,2.33
7.117266893386841,-2.4,0.09,0.13,2.4
7.126741886138916,-2.45,0.63,0.04,2.53
7.136717796325684,-2.44,1.13,-0.04,2.68
7.151087760925293,-2.56,1.44,-0.07,2.93
7.158246994018555,-2.51,1.71,-0.14,3.04
7.167399883270264,-2.29,2.1,-0.24,3.11
7.17649507522583,-1.85,2.6,-0.24,3.2
7.1865949630737305,-1.42,2.97,-0.36,3.31
7.2008490562438965,-1.28,3.15,-0.79,3.49
7.207937955856323,-1.21,3.25,-1.24,3.68
7.217195987701416,-1.06,3.36,-1.54,3.84
7.2266340255737305,-0.87,3.48,-1.55,3.9
7.236644983291626,-0.68,3.41,-1.3,3.71
7.251102924346924,-0.66,3.25,-0.87,3.42
7.258196830749512,-0.5,3.16,-0.16,3.2
7.267410755157471,-0.08,3.09,0.57,3.14
7.276627063751221,0.35,2.92,0.92,3.08
7.286812782287598,0.69,2.6,0.82,2.81
7.301740884780884,0.82,2.15,0.55,2.36
7.308532953262329,0.87,1.85,0.3,2.06
7.317626953125,0.97,1.66,0.27,1.94
7.326767921447754,1.23,1.61,0.35,2.05
7.336591958999634,1.58,1.56,0.4,2.25
7.350937843322754,2.02,1.45,0.29,2.5
7.357867956161499,2.29,1.45,0.22,2.71
7.367343902587891,2.34,1.74,0.38,2.94
7.376588821411133,2.24,1.97,0.66,3.05
7.386703014373779,2.15,2.07,0.89,3.11
7.400564908981323,2.44,2.03,1.03,3.33
7.4078168869018555,2.83,2.03,1.07,3.64
7.417447090148926,3.12,2.1,0.98,3.88
7.426748752593994,3.15,2.21,0.83,3.93
7.436679840087891,3.05,2.44,0.61,3.95
7.450750827789307,3.03,2.69,0.49,4.08
7.4581379890441895,3.06,2.91,0.38,4.23
7.467511892318726,3.19,3.06,0.16,4.42
7.476677894592285,3.31,3.02,-0.04,4.48
7.486785888671875,3.51,2.95,-0.05,4.58
7.5008320808410645,3.69,2.85,0.15,4.66
7.508195877075195,3.66,2.65,0.35,4.53
7.517446041107178,3.32,2.33,0.54,4.09
7.526901960372925,3.14,2.05,0.88,3.85
7.536667823791504,3.19,1.93,1.22,3.92
7.551017761230469,3.13,1.79,1.45,3.88
7.5582380294799805,2.89,1.69,1.51,3.67
7.567412853240967,2.58,1.69,1.53,3.44
7.576775074005127,2.44,1.78,1.54,3.39
7.586764812469482,2.57,1.74,1.45,3.42
7.6008100509643555,2.77,1.62,1.3,3.46
7.608328819274902,3.07,1.46,1.12,3.57
7.6175618171691895,3.3,1.25,1.03,3.67
7.627044916152954,3.43,0.98,0.96,3.69
7.636851787567139,3.5,0.64,0.93,3.67
7.651126861572266,3.41,0.33,0.86,3.53
7.65831184387207,3.09,0.18,0.65,3.16
7.6675567626953125,2.68,0.16,0.39,2.71
7.676968097686768,2.34,0.39,0.11,2.37
7.686915874481201,2.0,0.81,-0.13,2.16
7.700946807861328,1.7,1.25,-0.19,2.11
7.7083659172058105,1.47,1.72,-0.06,2.26
7.717549800872803,1.17,2.27,0.2,2.56
7.726908922195435,0.71,2.68,0.34,2.79
7.736963748931885,0.11,2.98,0.38,3.0
7.751126766204834,-0.56,3.37,0.49,3.45
7.758378028869629,-1.03,3.55,0.61,3.74
7.767836093902588,-1.35,3.44,0.49,3.72
7.776962757110596,-1.68,3.56,0.48,3.96
7.7869110107421875,-1.87,3.94,0.34,4.37
7.8012800216674805,-2.11,4.02,-0.19,4.54
7.808599948883057,-2.46,3.91,-0.73,4.67
7.817799091339111,-2.81,3.66,-0.96,4.71
7.827229022979736,-2.88,3.27,-0.89,4.44
7.836997032165527,-2.82,2.65,-0.7,3.93
7.851432800292969,-2.72,1.95,-0.45,3.37
7.858397006988525,-2.8,1.36,-0.32,3.12
7.86761999130249,-3.06,0.83,-0.32,3.18
7.8770060539245605,-3.4,0.39,-0.26,3.43
7.88702392578125,-3.67,0.1,-0.27,3.68
7.901272773742676,-3.74,-0.13,-0.39,3.76
7.908385753631592,-3.67,-0.39,-0.56,3.73
7.9175848960876465,-3.67,-0.65,-0.73,3.79
7.927083969116211,-3.71,-0.97,-0.84,3.92
7.936916828155518,-3.65,-1.3,-0.77,3.95
7.9511308670043945,-3.48,-1.64,-0.58,3.89
7.958446025848389,-3.33,-2.14,-0.33,3.97
7.967911958694458,-3.27,-2.67,-0.04,4.22
7.976998805999756,-3.44,-3.11,0.29,4.64
7.987058877944946,-3.58,-3.46,0.53,5.0
8.000854969024658,-3.72,-3.77,0.81,5.35
8.008459091186523,-3.9,-4.04,0.99,5.7
8.01770305633545,-3.84,-4.3,0.95,5.84
8.027160882949829,-3.56,-4.5,0.7,5.78
8.037047863006592,-3.34,-4.66,0.35,5.74
8.050957918167114,-3.29,-4.65,0.0,5.69
8.058463096618652,-3.06,-4.59,-0.1,5.51
8.067960977554321,-2.95,-4.69,-0.08,5.54
8.077118873596191,-2.93,-4.79,0.0,5.61
8.087132930755615,-2.91,-4.72,0.14,5.54
8.100759983062744,-3.06,-4.51,0.36,5.46
8.108564853668213,-3.3,-4.25,0.54,5.4
8.117824077606201,-3.35,-4.01,0.59,5.25
8.127219915390015,-3.29,-3.69,0.47,4.96
8.137135028839111,-3.15,-3.34,0.33,4.6
8.150925874710083,-2.99,-3.03,0.17,4.26
8.158530950546265,-2.91,-2.73,-0.05,3.99
8.167887926101685,-2.79,-2.47,-0.36,3.74
8.17721700668335,-2.69,-2.15,-0.7,3.51
8.187177896499634,-2.55,-1.81,-1.05,3.29
8.201080799102783,-2.7,-1.5,-1.37,3.37
8.208539962768555,-2.96,-1.14,-1.59,3.54
8.218045949935913,-3.02,-0.96,-1.53,3.51
8.227344036102295,-2.8,-0.93,-1.39,3.26
8.237161874771118,-2.37,-0.86,-1.13,2.76
8.250950813293457,-2.11,-0.63,-0.7,2.31
8.258512020111084,-2.21,-0.39,-0.22,2.25
8.267972946166992,-2.35,-0.33,0.02,2.37
8.27721881866455,-2.41,-0.36,-0.05,2.43
8.28728199005127,-2.43,-0.35,-0.03,2.45
8.30034589767456,-2.25,-0.35,0.21,2.28
8.308581829071045,-1.98,-0.34,0.45,2.05
8.317917823791504,-1.74,0.0,0.75,1.89
8.327352046966553,-1.71,0.72,1.06,2.13
8.337227821350098,-1.82,1.31,1.01,2.45
8.350941896438599,-1.81,1.66,0.63,2.53
8.358553886413574,-1.72,1.9,0.17,2.56
8.367931842803955,-1.52,2.14,-0.25,2.63
8.377368927001953,-1.33,2.45,-0.51,2.83
8.387279033660889,-1.18,2.89,-0.68,3.19
8.400867938995361,-0.93,3.39,-0.7,3.58
8.408620834350586,-0.58,3.73,-0.78,3.85
8.417954921722412,-0.49,3.64,-0.82,3.76
8.427242755889893,-0.44,3.52,-0.76,3.62
8.437238931655884,-0.09,3.4,-0.5,3.43
8.450562000274658,0.35,3.2,-0.09,3.22
8.458662986755371,0.63,2.96,0.17,3.03
8.468010902404785,0.91,2.62,0.25,2.78
8.477287769317627,1.1,2.31,0.29,2.57
8.487287044525146,1.17,2.19,0.34,2.5
8.50075888633728,1.33,2.22,0.43,2.62
8.508668899536133,1.56,2.35,0.38,2.84
8.517947912216187,1.73,2.52,0.31,3.07
8.527332782745361,1.96,2.44,0.33,3.14
8.53715705871582,2.27,2.16,0.22,3.14
8.550703048706055,2.58,1.91,0.31,3.22
8.55843210220337,2.87,1.7,0.58,3.38
8.567961931228638,3.11,1.33,0.88,3.49
8.577122926712036,3.24,0.87,1.24,3.57
8.587323904037476,3.43,0.74,1.62,3.86
8.600600957870483,3.73,0.86,1.9,4.27
8.608475923538208,3.98,0.93,2.0,4.55
8.617924928665161,4.01,0.94,1.64,4.43
8.627267837524414,3.68,1.06,1.0,3.95
8.637187004089355,3.75,1.29,0.35,3.98
8.65054988861084,4.09,1.49,-0.04,4.35
8.658561944961548,4.3,1.85,0.05,4.68
8.667903900146484,4.28,2.04,0.47,4.76
8.677207946777344,4.03,2.01,0.86,4.58
8.687217950820923,3.77,2.16,1.27,4.52
8.700520992279053,3.53,2.31,1.64,4.52
8.70842695236206,3.26,2.31,1.86,4.4
8.718004941940308,3.0,2.4,2.17,4.41
8.727327823638916,2.61,2.66,2.35,4.4
8.737181901931763,2.45,2.78,2.37,4.39
8.75081992149353,2.52,2.57,2.04,4.13
8.758799076080322,2.77,2.29,1.59,3.93
8.76811695098877,3.09,2.21,1.31,4.01
8.777324914932251,3.06,2.25,1.15,3.96
8.787283897399902,2.67,2.26,0.95,3.62
8.800782918930054,2.26,2.09,0.64,3.14
8.808695793151855,2.15,1.84,0.28,2.84
8.81802487373352,2.31,1.7,-0.02,2.86
8.827401876449585,2.45,1.69,-0.12,2.97
8.837171077728271,2.15,1.99,0.12,2.93
8.850754976272583,1.32,2.5,0.46,2.86
8.858667850494385,0.39,2.76,0.59,2.84
8.868215084075928,-0.25,2.96,0.67,3.04
8.877324104309082,-0.47,3.35,0.75,3.46
8.887302875518799,-0.32,3.56,0.6,3.62
8.900791883468628,-0.24,3.57,0.52,3.61
8.908987998962402,-0.26,3.64,0.63,3.7
8.918123960494995,-0.34,3.67,0.9,3.79
8.92736005783081,-0.65,3.74,1.12,3.95
8.937378883361816,-1.38,3.7,1.1,4.09
8.950645923614502,-1.99,3.7,0.9,4.29
8.958852767944336,-2.1,3.72,0.62,4.31
8.968216896057129,-1.98,3.44,0.13,3.97
8.977684020996094,-1.86,3.18,-0.58,3.72
8.987420082092285,-1.56,2.86,-1.07,3.42
9.004414081573486,-1.21,2.48,-1.25,3.02
9.008922100067139,-1.18,2.08,-1.21,2.68
9.018170833587646,-1.44,1.59,-0.97,2.35
9.027838945388794,-1.85,1.08,-0.57,2.21
9.037616968154907,-2.26,0.69,-0.27,2.37
9.054497957229614,-2.67,0.28,-0.12,2.68
9.059053897857666,-3.03,-0.09,-0.13,3.03
9.068199872970581,-3.13,-0.48,-0.24,3.17
9.077745914459229,-3.16,-0.99,-0.38,3.33
9.08751893043518,-3.25,-1.45,-0.4,3.58
9.104297876358032,-3.4,-1.82,-0.35,3.87
9.108828067779541,-3.52,-2.26,-0.27,4.19
9.118104934692383,-3.65,-2.63,-0.22,4.5
9.127745866775513,-3.66,-2.97,-0.11,4.71
9.137444972991943,-3.85,-3.31,-0.03,5.07
9.154263019561768,-4.22,-3.39,0.09,5.41
9.158785820007324,-4.37,-3.49,0.27,5.59
9.168205976486206,-4.6,-3.77,0.41,5.96
9.177725791931152,-4.68,-4.03,0.35,6.18
9.187489986419678,-4.68,-4.24,0.39,6.32
9.204311847686768,-4.72,-4.39,0.49,6.46
9.20879077911377,-4.69,-4.55,0.49,6.55
9.218215942382812,-4.45,-4.69,0.41,6.47
9.22770881652832,-4.06,-4.69,0.27,6.2
9.23764181137085,-3.82,-4.56,0.17,5.95
9.254301071166992,-3.8,-4.38,-0.13,5.8
9.258934020996094,-3.82,-4.29,-0.53,5.76
9.268285751342773,-3.61,-4.21,-0.84,5.6
9.27783989906311,-3.39,-4.01,-0.99,5.34
9.287521839141846,-3.21,-3.72,-0.92,4.99
9.304260969161987,-3.22,-3.45,-0.79,4.78
9.308827877044678,-3.18,-3.28,-0.63,4.61
9.318325996398926,-2.96,-3.18,-0.4,4.36
9.327967882156372,-2.58,-3.09,-0.29,4.03
9.337692975997925,-2.43,-2.95,-0.27,3.83
9.354260921478271,-2.34,-2.81,-0.33,3.67
9.35901403427124,-2.37,-2.68,-0.55,3.61
9.368462085723877,-2.45,-2.39,-0.87,3.53
9.377942085266113,-2.43,-2.02,-1.15,3.36
9.387712955474854,-2.45,-1.74,-1.3,3.27
9.404253959655762,-2.28,-1.52,-1.27,3.02
9.409000873565674,-1.99,-1.25,-0.99,2.55
9.418394088745117,-1.68,-0.9,-0.69,2.02
9.428006887435913,-1.55,-0.48,-0.55,1.71
9.437725067138672,-1.54,-0.07,-0.43,1.6
9.454217910766602,-1.66,0.25,-0.36,1.71
9.459167003631592,-1.8,0.49,-0.24,1.88
9.468365907669067,-1.88,0.74,0.02,2.02
9.47797679901123,-1.92,0.96,0.35,2.17
9.487785816192627,-1.89,1.23,0.58,2.32
9.504223823547363,-2.01,1.8,0.77,2.8
9.508922100067139,-2.04,2.52,0.94,3.37
9.518373012542725,-2.03,2.88,0.72,3.59
9.52807903289795,-2.03,2.84,0.34,3.5
9.53776502609253,-1.79,2.81,0.21,3.33
9.55430793762207,-1.55,2.71,0.56,3.17
9.559106826782227,-1.56,2.68,1.07,3.28
9.568387031555176,-1.37,2.66,1.45,3.32
9.57794189453125,-1.18,2.7,1.63,3.36
9.587756872177124,-1.06,2.68,1.7,3.34
9.604070901870728,-1.22,2.49,1.63,3.21
9.608941078186035,-1.24,2.11,1.32,2.78
9.618364810943604,-0.97,1.83,0.89,2.25
9.628128051757812,-0.48,1.77,0.67,1.95
9.637852907180786,0.14,1.72,0.54,1.8
9.65385389328003,0.64,1.76,0.37,1.9
9.659035921096802,0.78,2.05,0.17,2.19
9.668389797210693,0.86,2.3,-0.26,2.46
9.677942752838135,1.17,2.15,-0.74,2.55
9.687736988067627,1.4,1.92,-1.03,2.58
9.703345775604248,1.55,1.84,-1.08,2.63
9.708842754364014,1.82,1.78,-0.88,2.69
9.71838903427124,1.83,1.71,-0.57,2.56
9.728034019470215,2.07,1.72,-0.09,2.69
9.737760066986084,2.33,1.89,0.44,3.03
9.753536939620972,2.49,1.95,0.74,3.24
9.759008884429932,2.69,1.85,0.69,3.33
9.768441915512085,2.86,1.6,0.63,3.33
9.77794075012207,2.81,1.48,0.69,3.25
9.787806034088135,2.9,1.54,1.12,3.46
9.804038047790527,3.08,1.43,1.49,3.7
9.809078931808472,3.34,1.26,1.52,3.87
9.81842589378357,3.78,1.38,1.49,4.29
9.828149795532227,4.04,1.58,1.28,4.52
9.837918758392334,4.06,1.74,0.75,4.48
9.853899955749512,3.56,2.2,0.21,4.19
9.859265804290771,3.3,2.8,0.05,4.32
9.868645906448364,3.57,3.0,-0.02,4.66
9.878128051757812,3.94,2.9,-0.15,4.89
9.88791275024414,4.21,2.74,-0.08,5.02
9.903995990753174,4.34,2.56,0.21,5.04
9.909326076507568,4.18,2.37,0.64,4.84
9.918622016906738,3.77,2.47,1.18,4.65
9.928270816802979,3.39,2.72,1.65,4.64
9.937942028045654,3.0,2.85,1.88,4.54
9.95383882522583,2.74,2.78,1.97,4.37
9.959198951721191,2.64,2.62,1.92,4.18
9.968713760375977,2.55,2.56,1.77,4.02
9.978178977966309,2.35,2.73,1.7,3.98
9.987775802612305,2.42,2.85,1.71,4.11
10.003706932067871,2.4,2.8,1.58,4.01
10.009131908416748,2.33,2.77,1.49,3.91
10.01842975616455,2.23,2.77,1.4,3.82
10.028220891952515,2.14,2.85,1.14,3.74
10.037860870361328,2.14,3.03,0.81,3.79
10.054004907608032,2.01,3.29,0.48,3.88
10.059425830841064,1.7,3.61,0.08,3.99
10.068764925003052,1.4,3.82,-0.28,4.07
10.078238010406494,1.05,3.88,-0.82,4.1
10.088125944137573,0.85,3.95,-1.39,4.27
10.103949069976807,0.82,4.13,-1.74,4.55
10.1094069480896,0.47,4.46,-1.86,4.85
10.118736982345581,-0.1,4.6,-1.71,4.9
10.128568887710571,-0.67,4.44,-1.34,4.68
10.138126850128174,-0.9,4.0,-0.74,4.16
10.154160022735596,-0.96,3.26,-0.26,3.4
10.159480094909668,-1.31,2.44,-0.09,2.77
10.168808937072754,-1.94,1.78,-0.1,2.63
10.178307056427002,-2.46,1.2,-0.09,2.73
10.188209056854248,-2.67,0.56,-0.07,2.72
10.203927040100098,-2.68,0.05,0.0,2.68
10.209444999694824,-2.79,-0.26,0.04,2.8
10.21877908706665,-2.92,-0.56,0.01,2.97
10.22839093208313,-3.08,-0.86,-0.1,3.19
10.238041877746582,-3.28,-1.15,-0.16,3.47
10.25377082824707,-3.43,-1.43,-0.12,3.71
10.259413957595825,-3.47,-1.73,0.03,3.87
10.268699884414673,-3.79,-1.83,0.23,4.21
10.278300762176514,-4.32,-1.74,0.57,4.69
10.28790283203125,-4.66,-1.74,0.84,5.04
10.303548812866211,-4.86,-1.9,0.72,5.26
10.309456825256348,-4.92,-2.08,0.42,5.35
10.318748950958252,-4.76,-2.11,0.19,5.21
10.32849407196045,-4.6,-2.2,0.01,5.09
10.338152885437012,-4.5,-2.36,-0.25,5.08
10.353294849395752,-4.48,-2.48,-0.42,5.13
10.359302043914795,-4.45,-2.65,-0.34,5.19
10.368756771087646,-4.39,-2.89,-0.19,5.25
10.378238916397095,-4.48,-3.02,0.01,5.4
10.388103008270264,-3.39,-2.37,0.45,4.16
10.403193950653076,-2.22,-2.73,0.54,3.55
10.409225940704346,-5.7,-4.33,-0.24,7.16
10.418677806854248,-8.19,-5.69,-1.79,10.13
10.428307056427002,-6.33,-5.55,-1.83,8.61
10.437949895858765,-3.11,-4.25,-0.72,5.31
10.452861785888672,-1.03,-2.99,0.48,3.19
10.459289073944092,-0.98,-2.46,0.76,2.75
10.46866488456726,-2.19,-2.92,0.02,3.65
10.478226900100708,-3.29,-3.56,-0.78,4.9
10.487928867340088,-3.54,-3.56,-0.92,5.1
10.502896785736084,-3.13,-3.12,-0.68,4.47
10.509229898452759,-2.64,-2.71,-0.19,3.78
10.518698930740356,-2.34,-2.63,0.09,3.52
10.528617858886719,-2.32,-2.85,0.19,3.67
10.538145065307617,-2.41,-2.96,0.12,3.81
10.553541898727417,-2.51,-2.78,0.05,3.74
10.559538841247559,-2.6,-2.48,0.03,3.59
10.56880807876587,-2.72,-2.15,0.03,3.46
10.578397750854492,-2.64,-1.81,0.04,3.2
10.58821988105774,-2.46,-1.56,0.13,2.91
10.603216886520386,-2.32,-1.19,0.06,2.6
10.609498023986816,-2.56,-0.79,-0.23,2.68
10.618810892105103,-2.74,-0.58,-0.51,2.84
10.628442764282227,-2.84,-0.44,-0.65,2.94
10.638197898864746,-2.73,-0.33,-0.71,2.84
10.653331756591797,-2.43,-0.36,-0.58,2.52
10.659475803375244,-2.17,-0.4,-0.41,2.24
10.66877293586731,-2.01,-0.32,-0.22,2.04
10.678432941436768,-1.87,-0.14,0.0,1.87
10.688385963439941,-1.63,0.12,0.36,1.67
10.703216075897217,-1.37,0.45,0.59,1.55
10.709431886672974,-1.17,0.91,0.54,1.57
10.718769073486328,-1.0,1.36,0.45,1.74
10.728435039520264,-0.98,1.72,0.03,1.97
10.738089084625244,-0.91,2.11,-0.43,2.33
10.753115892410278,-0.68,2.63,-0.56,2.77
10.759419918060303,-0.22,3.14,-0.5,3.18
10.768845081329346,-0.08,3.49,-0.48,3.52
10.778414964675903,-0.29,3.82,-0.39,3.85
10.788368940353394,-0.44,4.11,-0.37,4.15
10.8035888671875,-0.61,4.26,-0.4,4.32
10.809922933578491,-0.74,4.16,-0.39,4.24
10.8189058303833,-0.69,3.86,-0.3,3.93
10.828442096710205,-0.33,3.57,-0.01,3.58
10.838254928588867,0.09,3.15,0.35,3.17
10.85315489768982,0.29,2.73,0.54,2.79
10.859903812408447,0.13,2.47,0.68,2.56
10.868913888931274,-0.18,2.34,0.8,2.47
10.878398895263672,-0.02,2.0,1.02,2.24
10.888457775115967,0.27,1.5,1.07,1.86
10.90324592590332,0.62,1.02,1.09,1.61
10.909859895706177,1.0,0.67,0.99,1.55
10.91910195350647,1.22,0.53,0.75,1.52
10.928516864776611,1.07,0.92,0.47,1.48
10.93830680847168,0.94,1.33,0.38,1.67
10.952950954437256,0.99,1.46,0.2,1.77
10.9598970413208,1.51,1.4,0.15,2.06
10.969044923782349,2.25,1.31,0.21,2.61
10.978502750396729,2.79,1.26,0.34,3.08
10.988359928131104,3.09,1.29,0.44,3.37
11.0032958984375,3.2,1.25,0.54,3.47
11.009939908981323,3.37,1.29,0.78,3.69
11.019061088562012,3.49,1.49,1.08,3.94
11.028451919555664,3.58,1.67,1.33,4.16
11.038449764251709,3.68,1.85,1.36,4.33
11.053109884262085,3.75,2.08,1.26,4.46
11.059967994689941,3.99,2.31,1.17,4.75
11.06912088394165,4.12,2.61,0.95,4.96
11.078547954559326,4.07,2.98,0.83,5.11
11.08837890625,4.07,3.25,0.85,5.27
11.103195905685425,4.04,3.21,0.82,5.22
11.110009908676147,3.99,3.06,0.83,5.09
11.118987083435059,3.99,2.91,1.03,5.04
11.128377914428711,3.75,2.78,1.41,4.87
11.138556003570557,3.42,2.77,1.99,4.83
11.153268814086914,3.19,2.73,2.41,4.84
11.160367012023926,3.11,2.55,2.49,4.73
11.169312953948975,3.09,2.32,2.37,4.53
11.178396940231323,2.88,2.1,2.15,4.16
11.188488006591797,2.69,1.88,1.83,3.75
11.203289985656738,2.47,1.63,1.47,3.3
11.210000991821289,2.18,1.58,1.2,2.94
11.219064950942993,1.92,1.69,0.91,2.71
11.228425979614258,1.65,1.68,0.56,2.42
11.238425970077515,1.46,1.45,0.31,2.08
11.253134965896606,1.59,1.29,0.17,2.05
11.260118007659912,1.91,1.33,0.16,2.33
11.269032955169678,2.09,1.58,0.21,2.62
11.278356075286865,1.8,1.81,0.09,2.55
11.28852391242981,0.98,2.1,-0.06,2.31
11.303022861480713,0.62,2.59,0.08,2.66
11.3101167678833,0.63,2.87,0.16,2.94
11.319069862365723,0.4,2.96,-0.22,2.99
11.328474998474121,0.09,3.08,-0.58,3.13
11.338651895523071,-0.02,3.14,-0.75,3.22
11.353072881698608,-0.13,3.24,-0.8,3.33
11.36018180847168,-0.55,3.42,-0.72,3.53
11.369132041931152,-1.01,3.4,-0.38,3.56
11.378407001495361,-1.58,3.05,-0.13,3.43
11.388551950454712,-1.92,2.57,0.01,3.2
11.402561902999878,-1.94,2.05,0.01,2.82
11.410161018371582,-1.86,1.52,-0.2,2.41
11.419151782989502,-1.99,1.05,-0.51,2.3
11.428477764129639,-2.35,0.74,-0.68,2.55
11.43857479095459,-2.78,0.48,-0.61,2.88
11.45252275466919,-3.02,0.25,-0.45,3.06
11.460249900817871,-3.17,0.01,-0.4,3.19
11.469207763671875,-3.45,-0.17,-0.55,3.49
11.478363990783691,-3.61,-0.41,-0.58,3.67
11.488616943359375,-3.7,-0.74,-0.51,3.8
11.50277590751648,-3.58,-1.2,-0.26,3.78
11.510194778442383,-3.5,-1.74,0.11,3.91
11.51934289932251,-3.72,-2.21,0.47,4.35
11.52864408493042,-3.99,-2.51,0.71,4.76
11.538590908050537,-4.29,-2.67,0.79,5.11
11.553082942962646,-4.51,-2.88,0.74,5.4
11.560479879379272,-4.59,-3.15,0.58,5.59
11.569390773773193,-4.54,-3.26,0.47,5.6
11.578718900680542,-4.32,-3.39,0.37,5.5
11.588720798492432,-4.25,-3.6,0.13,5.57
11.602993965148926,-4.23,-3.89,-0.14,5.74
11.610447883605957,-4.14,-4.13,-0.31,5.85
11.619603872299194,-4.05,-4.29,-0.36,5.91
11.62853193283081,-3.98,-4.45,-0.29,5.97
11.638751029968262,-3.91,-4.6,-0.21,6.04
11.653276920318604,-3.95,-4.68,-0.19,6.12
11.660508871078491,-3.96,-4.65,-0.11,6.1
11.669359922409058,-3.84,-4.58,-0.05,5.97
11.678723812103271,-3.65,-4.62,-0.1,5.88
11.68870496749878,-3.47,-4.62,-0.2,5.78
11.703129768371582,-3.39,-4.45,-0.32,5.6
11.710485935211182,-3.38,-4.13,-0.47,5.35
11.719484806060791,-3.29,-3.76,-0.67,5.04
11.72868299484253,-3.21,-3.32,-0.86,4.69
11.738810062408447,-3.19,-2.88,-0.89,4.38
11.753245830535889,-3.06,-2.55,-0.88,4.07
11.760540008544922,-3.04,-2.22,-0.76,3.84
11.769409894943237,-2.95,-1.78,-0.49,3.48
11.77870488166809,-2.83,-1.4,-0.2,3.16
11.78877305984497,-2.71,-1.05,0.01,2.9
11.803423881530762,-2.56,-0.73,0.1,2.66
11.810613870620728,-2.44,-0.4,0.11,2.47
11.819437026977539,-2.45,0.0,0.08,2.45
11.828706979751587,-2.26,0.22,0.05,2.27
11.838805913925171,-2.06,0.39,-0.06,2.09
11.853102922439575,-1.97,0.67,-0.11,2.08
11.860570907592773,-1.85,0.98,-0.15,2.09
11.869467973709106,-1.64,1.18,-0.19,2.02
11.87864875793457,-1.49,1.34,-0.17,2.01
11.888928890228271,-1.54,1.65,-0.13,2.26
11.90289306640625,-1.67,2.12,-0.04,2.69
11.910542011260986,-1.7,2.56,0.02,3.07
11.919432878494263,-1.58,2.74,-0.05,3.16
11.928969860076904,-1.46,2.66,-0.32,3.05
11.938745021820068,-1.26,2.52,-0.59,2.87
11.952576875686646,-0.99,2.68,-0.61,2.92
11.960432052612305,-0.71,3.22,-0.39,3.32
11.969380855560303,-0.77,3.8,-0.03,3.87
11.978809833526611,-0.85,4.06,0.04,4.14
11.988802909851074,-0.63,3.89,-0.25,3.94
12.002754926681519,-0.1,3.34,-0.41,3.36
12.010478019714355,0.38,2.83,-0.28,2.86
12.019584894180298,0.74,2.66,0.06,2.76
12.028968811035156,1.08,2.65,0.58,2.91
12.038846969604492,1.29,2.82,0.9,3.22
12.052670955657959,1.5,2.8,1.08,3.35
12.060499906539917,1.57,2.42,1.22,3.13
12.069417953491211,1.49,2.13,1.16,2.84
12.078921794891357,1.85,1.99,1.12,2.93
12.088831901550293,2.3,1.78,1.15,3.12
12.102458000183105,2.7,1.66,1.09,3.35
12.110490798950195,3.05,1.67,1.1,3.64
12.119370937347412,3.39,1.8,1.16,4.0
12.128913879394531,3.58,2.0,1.2,4.27
12.138640880584717,3.66,2.17,1.2,4.42
12.152262926101685,3.79,2.29,1.12,4.56
12.160476922988892,4.0,2.34,1.01,4.74
12.16947078704834,4.2,2.41,1.0,4.94
12.17873477935791,4.3,2.43,0.86,5.01
12.188829898834229,4.4,2.45,0.6,5.07
12.20228910446167,4.47,2.44,0.41,5.1
12.210433959960938,4.33,2.39,0.33,4.95
12.219645023345947,4.16,2.37,0.4,4.8
12.228961944580078,4.13,2.25,0.66,4.74
12.238659858703613,4.14,2.04,0.92,4.7
12.251956939697266,4.05,1.99,1.15,4.65
12.260193824768066,3.86,2.1,1.42,4.61
12.26939582824707,3.43,2.18,1.58,4.36
12.278861999511719,2.85,2.19,1.74,3.99
12.288811922073364,2.52,2.22,1.97,3.89
12.301923751831055,2.37,2.28,2.16,3.93
12.310375928878784,2.13,2.35,2.05,3.77
12.319391965866089,1.68,2.55,1.74,3.51
12.328826904296875,1.18,2.77,1.39,3.31
12.338907957077026,0.89,3.0,0.99,3.28
12.351792812347412,0.76,3.24,0.75,3.41
12.360558986663818,0.64,3.42,0.69,3.54
12.369558811187744,0.53,3.59,0.61,3.67
12.378856897354126,0.55,3.54,0.45,3.61
12.38893175125122,0.71,3.46,0.13,3.53
12.401948928833008,0.88,3.44,-0.12,3.55
12.410369873046875,0.72,3.42,-0.43,3.52
12.419364929199219,0.13,3.39,-0.75,3.47
12.428760051727295,-0.44,3.16,-0.96,3.33
12.438567876815796,-0.44,2.81,-1.07,3.03
12.451718807220459,-0.3,2.54,-1.18,2.81
12.460139751434326,-0.3,2.42,-1.26,2.74
12.46956205368042,-0.44,2.36,-1.25,2.7
12.479009866714478,-0.64,2.3,-1.09,2.62
12.489022970199585,-0.99,2.21,-0.81,2.55
12.502020835876465,-1.34,2.07,-0.42,2.5
12.510617971420288,-1.66,1.72,-0.08,2.39
12.519535064697266,-2.05,1.29,0.12,2.42
12.52890396118164,-2.39,0.96,0.26,2.58
12.538951873779297,-2.72,0.63,0.29,2.8
12.551716804504395,-3.0,0.14,0.21,3.01
12.560467958450317,-3.14,-0.41,0.09,3.16
12.5694260597229,-3.25,-0.73,0.09,3.33
12.578921794891357,-3.36,-0.88,0.15,3.47
12.589001893997192,-3.39,-1.18,0.09,3.59
12.601894855499268,-3.4,-1.65,0.03,3.77
12.61053991317749,-3.42,-2.08,0.05,4.0
12.619481086730957,-3.57,-2.42,0.22,4.31
12.629096031188965,-3.82,-2.65,0.43,4.66
12.638988971710205,-4.03,-3.05,0.66,5.09
12.651952981948853,-4.21,-3.45,0.73,5.49
12.660593032836914,-4.19,-3.66,0.79,5.61
12.66963005065918,-4.14,-3.85,0.88,5.72
12.678845882415771,-4.14,-4.02,0.95,5.84
12.689074993133545,-4.27,-4.1,0.79,5.97
12.702130794525146,-4.37,-4.11,0.46,6.01
12.710807800292969,-4.28,-4.17,0.13,5.97
12.719820022583008,-4.07,-4.33,-0.21,5.94
12.729122877120972,-3.77,-4.6,-0.47,5.96
12.739093780517578,-3.57,-4.8,-0.52,6.0
12.752058982849121,-3.48,-4.8,-0.35,5.93
12.760685920715332,-3.45,-4.61,-0.19,5.76
12.769754886627197,-3.37,-4.37,-0.03,5.51
12.779042959213257,-3.29,-4.22,0.03,5.35
12.789023876190186,-3.28,-4.0,-0.02,5.17
12.802249908447266,-3.27,-3.64,-0.1,4.89
12.810764789581299,-3.18,-3.28,-0.19,4.57
12.819762945175171,-3.06,-3.01,-0.34,4.3
12.829117774963379,-2.99,-2.78,-0.56,4.12
12.839162826538086,-2.9,-2.52,-0.69,3.9
12.852327823638916,-2.77,-2.24,-0.68,3.62
12.860682010650635,-2.74,-2.0,-0.68,3.45
12.869858980178833,-2.64,-1.75,-0.62,3.22
12.879092931747437,-2.43,-1.52,-0.51,2.91
12.889299869537354,-2.32,-1.3,-0.44,2.69
12.902297019958496,-2.41,-1.08,-0.3,2.65
12.910844802856445,-2.49,-0.94,-0.07,2.66
12.919816970825195,-2.27,-0.81,0.18,2.41
12.929289817810059,-1.98,-0.81,0.28,2.15
12.939303874969482,-1.65,-0.86,0.43,1.9
12.952339887619019,-1.28,-0.67,0.58,1.55
12.960946083068848,-0.93,-0.37,0.63,1.18
12.969919919967651,-0.69,-0.07,0.55,0.88
12.979079961776733,-0.6,0.22,0.44,0.77
12.989341974258423,-0.76,0.56,0.18,0.96
13.002516984939575,-0.83,0.94,-0.16,1.26
13.011106967926025,-0.77,1.37,-0.54,1.66
13.019969940185547,-0.73,1.86,-0.83,2.16
13.029383897781372,-0.87,2.21,-1.04,2.59
13.039268016815186,-1.1,2.49,-1.1,2.93
13.052515029907227,-1.29,2.68,-0.96,3.12
13.06098985671997,-1.25,2.67,-0.64,3.01
13.069987773895264,-1.1,2.54,-0.24,2.77
13.079241752624512,-1.03,2.38,0.23,2.6
13.089313983917236,-0.84,2.28,0.55,2.49
13.10259485244751,-0.7,2.27,0.69,2.47
13.111041069030762,-0.75,2.32,0.63,2.51
13.119893074035645,-0.86,2.28,0.36,2.46
13.129323959350586,-0.89,2.08,0.05,2.26
13.139509916305542,-0.72,1.82,-0.27,1.97
13.152474880218506,-0.3,1.81,-0.63,1.93
13.161214828491211,0.18,1.92,-0.71,2.05
13.17001485824585,0.34,1.97,-0.64,2.09
13.179305076599121,0.18,1.85,-0.57,1.94
13.189273834228516,0.04,1.61,-0.36,1.65
13.202462911605835,0.01,1.4,0.05,1.4
13.210878849029541,0.38,1.15,0.57,1.33
13.2199387550354,0.65,0.95,0.87,1.44
13.229375839233398,0.43,1.59,0.47,1.71
13.239520072937012,-0.27,3.65,-0.08,3.66
13.252499103546143,0.75,4.35,0.6,4.45
13.260973930358887,2.54,3.35,1.76,4.55
13.269967079162598,3.64,2.23,3.12,5.28
13.27923583984375,3.43,1.43,3.78,5.3
13.289309024810791,2.24,1.3,3.15,4.07
13.30261492729187,2.31,1.6,2.54,3.78
13.310957908630371,3.13,2.05,2.05,4.26
13.31981086730957,3.97,2.32,1.33,4.78
13.32925295829773,4.65,2.45,0.73,5.3
13.339282035827637,5.2,2.68,0.34,5.85
13.352351903915405,5.36,2.96,0.0,6.12
13.36095380783081,5.19,3.21,-0.31,6.11
13.370020866394043,5.1,3.2,-0.4,6.03
13.379272937774658,5.24,2.76,-0.32,5.93
13.38939094543457,4.96,2.21,-0.28,5.43
13.402568817138672,4.75,2.18,0.29,5.23
13.411127090454102,4.74,2.52,1.14,5.48
13.420106887817383,4.5,2.69,1.59,5.47
13.429412841796875,4.07,2.76,1.78,5.22
13.439465999603271,3.79,3.07,1.97,5.26
13.452796936035156,3.66,3.61,1.99,5.51
13.461185932159424,3.57,4.04,1.91,5.71
13.470122814178467,3.49,4.36,1.58,5.8
13.479561805725098,3.36,4.52,1.0,5.72
13.489543914794922,3.1,4.53,0.41,5.5
13.50300407409668,2.72,4.32,-0.05,5.1
13.51131796836853,2.41,4.23,-0.39,4.88
13.52006196975708,2.23,4.43,-0.37,4.97
13.529500007629395,1.79,4.53,-0.27,4.87
13.539578914642334,0.95,4.43,-0.16,4.53
13.552772045135498,0.19,4.5,-0.05,4.5
13.561212062835693,-0.36,4.61,0.17,4.62
13.570169925689697,-0.63,4.38,0.34,4.43
13.579547882080078,-0.94,4.06,0.4,4.18
13.589554786682129,-1.44,3.88,0.39,4.15
13.602967977523804,-1.88,3.52,0.21,3.99
13.611347913742065,-2.38,2.79,-0.15,3.67
13.620189905166626,-2.62,2.07,-0.41,3.36
13.62952995300293,-2.56,1.36,-0.47,2.93
13.639554977416992,-2.54,0.71,-0.36,2.66
13.653194904327393,-2.66,0.05,-0.08,2.66
13.661227941513062,-2.93,-0.58,0.22,2.99
13.670319080352783,-3.35,-0.96,0.45,3.51
13.679616928100586,-3.66,-1.08,0.63,3.86
13.689727783203125,-3.95,-1.12,0.7,4.16
13.702967882156372,-4.12,-1.31,0.73,4.38
13.711251974105835,-4.26,-1.62,0.55,4.59
13.720376014709473,-4.33,-2.08,0.39,4.81
13.729651927947998,-4.31,-2.56,0.2,5.01
13.739705085754395,-4.18,-2.98,0.01,5.13
13.7530517578125,-4.32,-3.22,-0.22,5.39
13.761383056640625,-4.64,-3.41,-0.35,5.76
13.770436763763428,-4.93,-3.69,-0.38,6.16
13.779587984085083,-5.05,-4.02,-0.32,6.46
13.789743900299072,-5.09,-4.24,-0.31,6.63
13.803022861480713,-5.15,-4.26,-0.25,6.68
13.81130075454712,-5.07,-4.23,-0.11,6.6
13.820400953292847,-5.06,-4.31,-0.06,6.64
13.829717874526978,-5.18,-4.47,-0.03,6.84
13.839632034301758,-5.16,-4.49,0.07,6.84
13.85309886932373,-4.97,-4.5,0.13,6.7
13.861377954483032,-4.74,-4.59,0.2,6.6
13.870543003082275,-4.56,-4.71,0.16,6.55
13.879645824432373,-4.51,-4.64,0.12,6.47
13.889814853668213,-4.36,-4.52,0.18,6.28
13.903162956237793,-4.2,-4.45,0.2,6.12
13.911261081695557,-4.24,-4.23,0.06,5.98
13.920374870300293,-4.24,-3.94,-0.09,5.78
13.92972707748413,-4.23,-3.68,-0.2,5.61
13.939866065979004,-4.17,-3.36,-0.33,5.36
13.95320987701416,-3.97,-3.1,-0.42,5.05
13.961497783660889,-3.7,-2.87,-0.53,4.71
13.970582962036133,-3.31,-2.81,-0.59,4.38
13.97983694076538,-3.0,-2.88,-0.64,4.2
13.989827871322632,-2.8,-2.86,-0.55,4.04
14.00327205657959,-2.63,-2.59,-0.29,3.7
14.011478900909424,-2.49,-2.22,0.06,3.33
14.020512104034424,-2.52,-1.72,0.27,3.06
14.029911994934082,-2.66,-1.27,0.34,2.96
14.039960861206055,-2.75,-0.93,0.36,2.92
14.053361892700195,-2.66,-0.62,0.37,2.75
14.061359882354736,-2.35,-0.22,0.43,2.39
14.070560932159424,-2.17,0.42,0.69,2.31
14.079799890518188,-2.23,1.27,1.0,2.75
14.089932918548584,-2.28,1.98,1.23,3.26
14.10352897644043,-2.44,2.6,1.2,3.76
14.111512899398804,-2.46,3.18,0.92,4.12
14.120603084564209,-2.44,3.6,0.45,4.37
14.129887104034424,-2.29,3.91,-0.17,4.53
14.13998794555664,-2.14,4.22,-0.8,4.79
14.15343689918518,-1.87,4.41,-1.22,4.94
14.16147494316101,-1.43,4.67,-1.55,5.12
14.170660018920898,-0.79,4.8,-1.73,5.16
14.179852962493896,-0.22,4.66,-1.76,4.98
14.190008878707886,0.33,4.32,-1.89,4.72
14.203412055969238,0.55,4.0,-2.03,4.51
14.211526870727539,1.29,3.43,-1.57,3.98
14.220591068267822,1.64,3.0,-1.17,3.61
14.229918003082275,1.69,2.54,-0.51,3.09
14.239928960800171,1.75,2.36,0.52,2.98
14.253235816955566,2.08,2.26,1.3,3.33
14.261383056640625,2.41,2.42,1.66,3.79
14.270474910736084,2.65,2.48,1.75,4.02
14.279807090759277,2.88,2.36,1.58,4.04
14.29001498222351,3.37,2.31,1.38,4.31
14.303457975387573,4.18,2.4,1.34,5.0
14.311532974243164,4.88,2.63,1.36,5.7
14.320580005645752,5.45,2.86,1.49,6.33
14.329926013946533,5.9,2.91,1.48,6.74
14.339999914169312,6.05,3.11,1.45,6.95
14.353448867797852,6.15,3.57,1.51,7.26
14.36129379272461,6.11,3.9,1.3,7.36
14.370556831359863,5.7,4.01,0.94,7.03
14.379991054534912,4.99,4.21,0.84,6.58
14.390027046203613,4.5,4.5,0.72,6.4
14.403218984603882,4.41,4.44,0.44,6.27
14.411231994628906,4.53,4.26,0.18,6.22
14.420569896697998,4.38,4.2,0.07,6.06
14.430112838745117,4.1,4.01,0.12,5.73
14.440054893493652,3.83,3.69,0.19,5.32
14.453292846679688,3.78,3.36,0.39,5.07
14.461335897445679,3.83,3.15,0.74,5.01
14.470570087432861,3.68,3.02,1.07,4.87
14.47996997833252,3.53,2.9,1.19,4.72
14.489981889724731,3.19,2.64,1.17,4.3
14.503431797027588,2.9,2.39,1.07,3.9
14.511180877685547,2.7,2.37,1.01,3.73
14.520611763000488,2.4,2.72,1.0,3.76
14.530098915100098,2.11,3.22,0.93,3.96
14.540154933929443,1.58,3.51,0.44,3.87
14.553581953048706,1.11,3.52,-0.31,3.7
14.561317920684814,0.87,3.35,-0.82,3.55
14.570658922195435,0.67,3.16,-1.16,3.43
14.579984903335571,0.56,2.9,-1.42,3.27
14.589983940124512,0.24,2.59,-1.6,3.05
14.603407859802246,-0.79,2.79,-1.37,3.2
14.611324787139893,-1.87,3.42,-0.79,3.97
14.620577812194824,-2.52,3.46,-0.59,4.32
14.630128860473633,-2.82,2.95,-0.72,4.14
14.63999080657959,-2.95,2.5,-0.76,3.94
14.653557777404785,-2.99,2.14,-0.63,3.73
14.661354064941406,-3.1,1.6,-0.55,3.53
14.670875072479248,-3.46,0.9,-0.48,3.6
14.680140972137451,-3.92,0.22,-0.37,3.94
14.69006896018982,-4.14,-0.34,-0.1,4.15
14.703639030456543,-4.28,-0.72,0.16,4.34
14.711434841156006,-4.5,-0.95,0.28,4.6
14.720821857452393,-4.61,-1.09,0.24,4.74
14.730155944824219,-4.62,-1.43,0.03,4.83
14.740057945251465,-4.48,-1.97,-0.17,4.89
14.7533278465271,-4.18,-2.56,-0.18,4.9
14.76133394241333,-3.92,-3.03,0.07,4.95
14.770781993865967,-3.91,-3.32,0.4,5.14
14.780122756958008,-4.05,-3.49,0.62,5.38
14.790050983428955,-4.26,-3.53,0.73,5.58
14.803432941436768,-4.49,-3.56,0.79,5.78
14.811445951461792,-4.59,-3.69,0.8,5.94
14.820510864257812,-4.59,-3.84,0.84,6.04
14.830193042755127,-4.52,-3.88,0.91,6.02
14.8402419090271,-4.44,-3.84,1.01,5.95
14.853527069091797,-4.34,-3.82,1.03,5.87
14.861506938934326,-4.15,-3.96,0.84,5.79
14.870842933654785,-3.85,-4.15,0.68,5.7
14.880238056182861,-3.57,-4.24,0.6,5.57
14.890156984329224,-3.42,-4.21,0.57,5.45
14.903384923934937,-3.34,-4.12,0.57,5.33
14.911515951156616,-3.32,-4.09,0.6,5.3
14.920416831970215,-3.32,-4.14,0.6,5.34
14.930195808410645,-3.22,-4.04,0.56,5.19
14.94041395187378,-3.03,-3.76,0.44,4.84
14.953382015228271,-2.8,-3.35,0.3,4.37
14.961475849151611,-2.61,-2.88,0.03,3.88
14.97087287902832,-2.59,-2.49,-0.15,3.59
14.98020076751709,-2.56,-2.17,-0.26,3.36
14.990246772766113,-2.41,-1.91,-0.29,3.08
15.003519058227539,-2.15,-1.68,-0.17,2.73
15.01157283782959,-2.03,-1.49,-0.12,2.52
15.020765781402588,-2.13,-1.36,-0.07,2.52
15.030388832092285,-2.11,-1.22,-0.02,2.43
15.040332794189453,-1.94,-1.05,0.01,2.2
15.053621768951416,-1.89,-0.71,0.19,2.02
15.061491012573242,-1.88,-0.46,0.48,1.99
15.070931911468506,-1.91,-0.36,0.73,2.07
15.080234050750732,-1.97,-0.06,0.83,2.13
15.090276956558228,-2.05,0.33,0.74,2.2
15.103374004364014,-2.1,0.48,0.48,2.2
15.111433029174805,-2.04,0.49,-0.11,2.1
15.120923042297363,-1.83,0.51,-0.62,1.99
15.13025188446045,-1.8,0.65,-0.84,2.09
15.140233039855957,-1.94,0.83,-0.58,2.18
15.153327941894531,-2.1,1.13,0.04,2.38
15.161365032196045,-2.33,1.52,0.71,2.87
15.170971870422363,-2.3,1.75,1.25,3.14
15.180227756500244,-2.11,1.86,1.45,3.16
15.190172910690308,-1.41,1.94,1.36,2.75
15.203108787536621,-0.68,1.88,1.03,2.24
15.21136999130249,-0.5,1.77,0.39,1.88
15.220692873001099,-0.48,1.79,-0.39,1.89
15.230251789093018,-0.56,2.09,-0.98,2.37
15.240170001983643,-0.41,2.49,-1.35,2.86
15.253273963928223,-0.32,2.8,-1.57,3.22
15.261510848999023,-0.22,3.01,-1.62,3.42
15.270835876464844,-0.11,3.23,-1.41,3.52
15.280044078826904,-0.06,3.36,-0.96,3.49
15.290299892425537,-0.01,3.38,-0.44,3.4
15.303202867507935,0.2,3.15,-0.14,3.15
15.311498880386353,0.6,2.71,0.16,2.78
15.320787906646729,1.05,2.29,0.68,2.6
15.330321788787842,1.26,1.94,1.18,2.59
15.340281009674072,1.4,1.56,1.57,2.61
15.353271961212158,1.48,1.41,1.72,2.67
15.361519813537598,1.4,1.57,1.62,2.65
15.37081003189087,1.55,1.82,1.41,2.77
15.38020396232605,1.82,1.96,0.98,2.84
15.390240907669067,2.01,1.95,0.48,2.84
15.403361797332764,2.1,1.97,0.07,2.88
15.4115309715271,2.41,2.18,-0.33,3.26
15.420872926712036,2.57,2.19,-0.59,3.42
15.43030595779419,2.94,2.02,-0.58,3.61
15.445580959320068,3.38,1.96,-0.5,3.93
15.453686952590942,3.66,2.08,-0.31,4.22
15.461734771728516,3.85,2.17,-0.12,4.42
15.470911026000977,3.79,2.22,-0.12,4.39
15.480339050292969,3.8,2.23,-0.16,4.4
15.495876789093018,4.12,2.18,-0.13,4.66
15.503712892532349,4.31,2.32,-0.05,4.89
15.511627912521362,4.38,2.51,-0.03,5.04
15.520972967147827,4.18,2.55,-0.1,4.89
15.530412912368774,3.86,2.57,-0.2,4.64
15.545694828033447,3.78,2.66,-0.16,4.62
15.553525924682617,3.71,2.79,-0.03,4.64
15.561649799346924,3.49,2.89,0.02,4.53
15.571191787719727,3.21,2.84,0.1,4.28
15.580398082733154,3.1,2.68,0.27,4.1
15.595939874649048,2.96,2.43,0.55,3.86
15.603689908981323,2.7,2.12,0.82,3.52
15.611723899841309,2.45,1.88,1.07,3.26
15.621054887771606,2.35,1.52,1.29,3.08
15.630374908447266,2.08,1.32,1.18,2.73
15.645609855651855,1.88,1.32,1.06,2.52
15.653570890426636,1.79,1.28,0.86,2.36
15.661593914031982,1.53,1.25,0.66,2.08
15.671205043792725,1.27,1.45,0.7,2.05
15.680466890335083,0.77,1.46,0.62,1.76
15.696140766143799,0.32,1.49,0.49,1.6
15.703866004943848,0.15,1.57,0.28,1.6
15.712021827697754,0.08,1.5,0.23,1.51
15.721136093139648,0.09,1.56,0.3,1.59
15.730478763580322,-0.06,1.66,0.49,1.73
15.745739936828613,-0.36,1.79,0.61,1.92
15.753617763519287,-0.75,1.78,0.67,2.04
15.761636972427368,-0.84,1.69,0.8,2.04
15.771106958389282,-0.68,1.53,0.85,1.87
15.780492782592773,-0.51,1.37,0.69,1.61
15.795801877975464,-0.58,1.33,0.29,1.47
15.803431987762451,-0.81,1.38,-0.05,1.6
15.811723947525024,-0.89,1.31,-0.41,1.63
15.8211350440979,-0.92,1.11,-0.78,1.63
15.830666065216064,-0.89,0.98,-0.92,1.61
15.846089839935303,-0.97,1.02,-0.81,1.62
15.853545904159546,-1.25,1.34,-0.47,1.89
15.86171007156372,-1.54,1.59,-0.04,2.21
15.871190071105957,-2.04,1.62,0.18,2.61
15.880475997924805,-2.49,1.36,0.33,2.85
15.89617109298706,-2.7,1.04,0.37,2.91
15.903658866882324,-2.66,0.62,0.45,2.76
15.91181492805481,-2.46,0.3,0.48,2.52
15.921075820922852,-2.52,0.07,0.27,2.53
15.930593013763428,-2.61,-0.3,-0.08,2.62
15.946228981018066,-2.68,-0.63,-0.44,2.78
15.953587055206299,-2.73,-0.88,-0.76,2.96
15.961901903152466,-2.84,-1.12,-0.96,3.2
15.971313953399658,-2.81,-1.43,-1.08,3.33
15.980572938919067,-2.9,-1.84,-1.11,3.6
15.99612283706665,-2.99,-2.23,-1.05,3.87
16.00353693962097,-3.1,-2.56,-0.81,4.1
16.011852979660034,-3.25,-2.81,-0.57,4.33
16.021207809448242,-3.42,-3.1,-0.36,4.62
16.030652046203613,-3.69,-3.51,-0.23,5.09
16.04617691040039,-3.96,-3.84,-0.17,5.51
16.054011821746826,-4.03,-4.08,-0.07,5.73
16.06193494796753,-4.05,-4.16,0.1,5.8
16.0713529586792,-4.16,-4.18,0.33,5.9
16.080586910247803,-4.23,-4.19,0.52,5.97
16.096293926239014,-4.16,-4.09,0.74,5.88
16.10371994972229,-4.04,-3.99,0.96,5.75
16.11182188987732,-4.01,-3.83,1.04,5.64
16.121290922164917,-4.09,-3.56,1.15,5.54
16.130515098571777,-4.09,-3.19,1.1,5.3
16.146347045898438,-3.86,-2.91,0.87,4.91
16.15397882461548,-3.5,-2.55,0.41,4.34
16.161876916885376,-3.17,-2.15,0.04,3.83
16.17129898071289,-3.11,-1.59,-0.32,3.5
16.18067193031311,-3.1,-1.04,-0.84,3.37
16.196086883544922,-2.99,-0.73,-1.28,3.33
16.20374298095703,-2.93,-0.47,-1.66,3.4
16.21198296546936,-2.71,-0.3,-1.73,3.22
16.221396923065186,-2.43,-0.36,-1.56,2.91
16.23073387145996,-2.21,-0.65,-1.19,2.59
16.246288776397705,-2.14,-0.82,-0.71,2.39
16.25412893295288,-2.1,-0.93,-0.16,2.3
16.261877059936523,-2.02,-1.15,0.27,2.34
16.27150797843933,-1.83,-1.22,0.47,2.24
16.28066396713257,-1.59,-1.01,0.53,1.95
16.296331882476807,-1.47,-0.84,0.51,1.76
16.304024934768677,-1.42,-0.89,0.28,1.69
16.31197500228882,-1.5,-0.92,-0.05,1.76
16.32134485244751,-1.58,-0.76,-0.23,1.76
16.330705881118774,-1.5,-0.48,-0.17,1.58
16.346446990966797,-1.18,-0.09,-0.07,1.18
16.354050874710083,-0.92,0.42,0.16,1.02
16.361942768096924,-0.72,0.92,0.52,1.27
16.37147283554077,-0.71,1.29,0.69,1.62
16.380788803100586,-0.68,1.58,0.74,1.87
16.396703958511353,-0.54,1.9,0.73,2.1
16.40423583984375,-0.27,2.2,0.6,2.29
16.412184953689575,-0.19,2.46,0.41,2.5
16.421424865722656,-0.16,2.66,0.12,2.66
16.430799961090088,0.31,2.8,-0.08,2.81
16.44655704498291,0.81,2.97,-0.16,3.08
16.454102993011475,1.22,3.25,-0.26,3.48
16.462151050567627,1.66,3.34,-0.38,3.74
16.47135877609253,1.92,3.25,-0.38,3.79
16.48086977005005,2.05,3.06,-0.23,3.69
16.49701499938965,2.2,2.93,0.11,3.66
16.504234790802002,2.39,2.89,0.46,3.77
16.51226496696472,2.58,2.74,0.71,3.82
16.52142596244812,2.78,2.59,0.84,3.89
16.530919075012207,2.95,2.54,0.99,4.01
16.546513080596924,3.1,2.55,1.03,4.14
16.554038047790527,3.16,2.52,1.05,4.17
16.56202983856201,3.23,2.45,1.1,4.2
16.571577072143555,3.33,2.37,1.32,4.29
16.5808367729187,3.53,2.31,1.48,4.47
16.596590042114258,3.79,2.3,1.47,4.67
16.60404109954834,4.06,2.26,1.36,4.84
16.61208987236023,3.87,2.37,1.09,4.66
16.62150478363037,3.69,2.5,0.79,4.52
16.63092803955078,3.64,2.61,0.47,4.5
16.646556854248047,3.55,2.76,0.1,4.49
16.653926849365234,3.48,2.86,-0.21,4.5
16.661962032318115,3.53,2.75,-0.35,4.48
16.671464920043945,3.51,2.6,-0.31,4.37
16.680869102478027,3.36,2.61,-0.07,4.25
16.69643497467041,3.25,2.63,0.24,4.18
16.703999042510986,3.07,2.51,0.46,3.99
16.71215581893921,2.94,2.44,0.64,3.87
16.721424102783203,2.95,2.44,0.91,3.93
16.730935096740723,2.81,2.43,1.16,3.89
16.746737003326416,2.45,2.57,1.3,3.78
16.754168033599854,2.21,2.6,1.26,3.63
16.762324810028076,2.07,2.42,0.93,3.31
16.77165389060974,1.86,2.29,0.53,2.99
16.781054973602295,1.53,2.28,0.33,2.76
16.797021865844727,1.09,2.29,0.25,2.54
16.804205894470215,0.66,2.44,0.29,2.54
16.81233501434326,0.49,2.62,0.56,2.72
16.821590900421143,0.19,3.0,0.78,3.1
16.83101177215576,-0.09,3.31,0.85,3.41
16.847057819366455,-0.37,3.34,0.73,3.43
16.854386806488037,-0.53,3.18,0.49,3.26
16.862395763397217,-0.6,2.94,0.13,3.0
16.871678829193115,-0.73,2.83,-0.07,2.92
16.881038904190063,-0.89,2.96,-0.27,3.1
16.897335052490234,-1.26,2.98,-0.58,3.28
16.90435290336609,-1.68,2.86,-0.79,3.4
16.91233491897583,-1.88,2.8,-0.8,3.46
16.921620845794678,-2.02,2.59,-0.68,3.35
16.93111801147461,-2.31,2.23,-0.58,3.26
16.947244882583618,-2.52,1.75,-0.36,3.08
16.954798936843872,-2.51,1.19,-0.14,2.78
16.96220874786377,-2.48,0.68,0.0,2.57
16.971723079681396,-2.5,0.3,0.05,2.51
16.98097586631775,-2.67,0.03,-0.02,2.67
16.996739864349365,-3.12,-0.2,-0.08,3.12
17.004106044769287,-3.37,-0.43,-0.13,3.39
17.01232385635376,-3.35,-0.7,-0.22,3.42
17.02148675918579,-3.35,-1.02,-0.33,3.51
17.030982971191406,-3.32,-1.28,-0.41,3.58
17.046557903289795,-3.28,-1.66,-0.45,3.7
17.054049015045166,-3.23,-2.06,-0.52,3.86
17.0622820854187,-3.25,-2.37,-0.6,4.06
17.071695804595947,-3.22,-2.64,-0.74,4.22
17.08105492591858,-3.29,-3.05,-0.82,4.56
17.096352100372314,-3.51,-3.33,-0.82,4.9
17.104262828826904,-3.67,-3.45,-0.72,5.08
17.11225700378418,-3.66,-3.5,-0.51,5.08
17.1217041015625,-3.68,-3.45,-0.35,5.05
17.131126880645752,-3.82,-3.39,-0.21,5.11
17.14687490463257,-3.9,-3.39,-0.05,5.16
17.1545090675354,-3.86,-3.47,0.07,5.19
17.162375926971436,-3.76,-3.59,0.09,5.19
17.171918869018555,-3.74,-3.79,0.1,5.32
17.18120288848877,-3.69,-3.82,0.12,5.31
17.196928024291992,-3.59,-3.78,0.15,5.21
17.204341888427734,-3.57,-3.65,0.21,5.1
17.212356090545654,-3.58,-3.47,0.24,4.99
17.221755027770996,-3.4,-3.42,0.2,4.82
17.231049060821533,-3.17,-3.34,0.17,4.6
17.246829986572266,-2.93,-3.23,0.14,4.36
17.25436305999756,-2.77,-3.09,0.13,4.15
17.262417793273926,-2.68,-2.84,0.19,3.9
17.271849870681763,-2.74,-2.63,0.15,3.8
17.28106689453125,-2.78,-2.48,0.1,3.72
17.297061920166016,-2.69,-2.42,-0.04,3.61
17.304436922073364,-2.47,-2.39,-0.12,3.43
17.31237506866455,-2.33,-2.34,-0.15,3.3
17.321896076202393,-2.23,-2.28,-0.13,3.19
17.331182956695557,-2.1,-2.26,-0.07,3.08
17.34709095954895,-2.02,-2.28,-0.02,3.04
17.354654788970947,-1.93,-2.32,0.05,3.01
17.36246395111084,-1.82,-2.15,0.19,2.82
17.372062921524048,-1.87,-1.76,0.4,2.59
17.38123893737793,-2.04,-1.28,0.74,2.51
17.39715576171875,-2.14,-0.91,1.02,2.53
17.404762983322144,-2.01,-0.59,1.03,2.33
17.4126877784729,-1.84,-0.35,0.93,2.09
17.421923875808716,-1.85,-0.05,0.87,2.04
17.431241035461426,-1.86,0.47,0.82,2.08
17.447091102600098,-2.0,1.0,0.63,2.32
17.45453977584839,-2.03,1.57,0.23,2.57
17.462525844573975,-1.86,1.91,-0.34,2.68
17.47199583053589,-1.66,2.02,-0.92,2.77
17.48125696182251,-1.48,2.18,-1.32,2.94
17.49720597267151,-1.31,2.29,-1.59,3.08
17.504581928253174,-1.1,2.36,-1.6,3.05
17.512492895126343,-0.99,2.74,-1.29,3.18
17.521894931793213,-0.81,3.16,-0.83,3.36
17.531397819519043,-0.72,3.22,-0.52,3.34
17.547257900238037,-0.69,3.15,-0.42,3.25
17.554511070251465,-0.43,3.04,-0.35,3.09
17.562723875045776,-0.19,2.92,-0.29,2.94
17.572067975997925,0.02,2.9,-0.34,2.91
17.581361770629883,0.38,2.89,-0.26,2.92
17.597300052642822,0.75,2.83,-0.03,2.92
17.604763984680176,0.95,2.71,0.27,2.88
17.61275577545166,1.18,2.56,0.64,2.89
17.622007846832275,1.38,2.52,1.02,3.04
17.63145399093628,1.57,2.35,1.41,3.15
17.6472749710083,1.83,2.18,1.65,3.28
17.654587984085083,2.21,2.29,1.82,3.66
17.662800788879395,2.62,2.42,1.79,3.99
17.672024965286255,2.81,2.55,1.47,4.06
17.681550979614258,2.97,3.16,1.3,4.52
17.69732093811035,3.65,3.79,1.63,5.5
17.704818964004517,3.87,3.67,1.56,5.55
17.712822914123535,4.15,3.43,1.25,5.52
17.722074031829834,4.66,3.36,0.99,5.82
17.73152494430542,5.06,3.4,0.65,6.13
17.74734091758728,4.96,3.59,0.13,6.12
17.754925966262817,4.63,3.82,-0.37,6.01
17.762775897979736,4.72,3.74,-0.7,6.06
17.772165775299072,4.71,3.35,-0.85,5.84
17.781580924987793,4.32,3.04,-0.64,5.32
17.79749298095703,4.12,3.08,0.06,5.14
17.804826974868774,4.12,3.14,0.89,5.25
17.812805891036987,3.92,2.97,1.42,5.11
17.82214879989624,3.82,2.82,1.78,5.07
17.8315908908844,3.57,3.02,2.0,5.08
17.84727692604065,3.2,3.4,1.96,5.06
17.854865074157715,2.88,3.36,1.75,4.75
17.862785816192627,2.57,3.23,1.46,4.37
17.87266993522644,2.4,3.15,1.21,4.14
17.881484031677246,2.18,3.17,0.96,3.96
17.89747905731201,2.06,3.09,0.63,3.76
17.904892921447754,2.04,2.88,0.18,3.53
17.912829875946045,2.13,2.65,-0.3,3.41
17.922525882720947,1.85,2.58,-0.68,3.24
17.931472778320312,1.36,2.82,-0.73,3.21
17.947158813476562,0.91,3.05,-0.53,3.22
17.95485782623291,0.25,3.1,-0.28,3.12
17.962886810302734,-0.46,3.2,-0.08,3.23
17.972065925598145,-1.1,3.2,0.04,3.38
17.981584072113037,-1.57,2.94,-0.04,3.33
17.99676275253296,-1.72,2.42,-0.18,2.97
18.004676818847656,-1.59,1.81,-0.28,2.42
18.01285696029663,-1.42,1.2,-0.34,1.88
18.02252697944641,-1.49,0.65,-0.26,1.64
18.031584978103638,-1.8,0.18,-0.13,1.81
18.046891927719116,-2.14,-0.16,0.0,2.14
18.05468487739563,-2.58,-0.09,0.19,2.58
18.0627338886261,-3.14,0.27,0.39,3.17
18.0725839138031,-3.57,0.25,0.31,3.59
18.08154797554016,-3.92,-0.19,0.1,3.92
18.096715927124023,-3.85,-0.68,-0.08,3.91
18.104568004608154,-3.52,-1.03,-0.13,3.66
18.112760066986084,-3.28,-1.42,0.01,3.57
18.122371912002563,-3.15,-1.82,0.12,3.63
18.131444931030273,-3.23,-2.11,0.13,3.86
18.146508932113647,-3.33,-2.29,0.05,4.04
18.154521942138672,-3.47,-2.43,-0.04,4.23
18.16276502609253,-3.71,-2.53,-0.1,4.49
18.17250108718872,-3.91,-2.48,-0.19,4.63
18.181518077850342,-3.92,-2.36,-0.2,4.57
18.19632387161255,-3.99,-2.09,-0.25,4.51
18.204445838928223,-4.15,-1.87,-0.36,4.56
18.212816953659058,-4.26,-1.86,-0.45,4.67
18.22257089614868,-4.34,-1.92,-0.65,4.79
18.23166275024414,-4.27,-2.11,-0.71,4.81
18.246474981307983,-4.21,-2.47,-0.58,4.91
18.254754066467285,-4.06,-2.93,-0.33,5.01
18.26282286643982,-3.85,-3.28,-0.03,5.05
18.272841930389404,-3.71,-3.45,0.32,5.07
18.281585931777954,-3.64,-3.59,0.69,5.15
18.296847820281982,-3.67,-3.64,0.86,5.24
18.304879903793335,-3.61,-3.6,0.84,5.16
18.31300187110901,-3.46,-3.57,0.7,5.02
18.322731971740723,-3.31,-3.48,0.47,4.82
18.33173894882202,-3.14,-3.29,0.25,4.55
18.34651494026184,-2.93,-3.21,0.12,4.34
18.354819774627686,-2.66,-3.27,-0.04,4.21
18.36291193962097,-2.37,-3.33,-0.16,4.09
18.3728289604187,-2.17,-3.29,-0.25,3.94
18.381603956222534,-2.01,-3.15,-0.3,3.74
18.396262884140015,-1.85,-2.9,-0.38,3.46
18.404656887054443,-1.76,-2.53,-0.41,3.1
18.412728786468506,-1.83,-2.11,-0.41,2.82
18.422587871551514,-1.93,-1.79,-0.29,2.64
18.431720972061157,-2.07,-1.5,-0.13,2.55
18.446456909179688,-2.25,-1.14,0.06,2.52
18.454871892929077,-2.21,-0.76,0.32,2.35
18.46289587020874,-2.14,-0.43,0.48,2.23
18.47278881072998,-2.01,-0.13,0.56,2.09
18.48178195953369,-1.99,0.29,0.66,2.11
18.49629497528076,-2.12,0.62,0.79,2.34
18.504805088043213,-2.22,0.76,0.73,2.45
18.512760877609253,-2.22,1.0,0.54,2.49
18.52261209487915,-2.04,1.38,0.35,2.48
18.53179097175598,-1.97,1.64,0.05,2.56
18.546504974365234,-1.9,1.78,-0.42,2.63
18.55484390258789,-1.71,1.99,-0.75,2.72
18.562992095947266,-1.34,2.04,-1.03,2.64
18.572906017303467,-1.06,1.89,-1.22,2.48
18.581695079803467,-0.75,1.82,-1.15,2.27
18.596383094787598,-0.49,1.76,-0.83,2.0
18.60476303100586,-0.41,1.64,-0.48,1.75
18.613091945648193,-0.36,1.44,-0.15,1.49
18.622726917266846,-0.33,1.22,0.23,1.28
18.631755828857422,-0.34,1.3,0.67,1.5
18.646044969558716,-0.13,1.61,1.06,1.93
18.654808044433594,0.29,1.71,1.23,2.12
18.663021087646484,0.7,1.77,1.06,2.17
18.67288088798523,1.18,1.96,0.71,2.39
18.681763887405396,1.51,2.3,0.25,2.76
18.696248054504395,1.73,2.54,-0.21,3.08
18.704983949661255,1.86,2.75,-0.5,3.35
18.712939977645874,2.15,3.05,-0.5,3.76
18.722718954086304,2.55,3.18,-0.34,4.09
18.731854915618896,2.8,3.07,-0.21,4.16
18.74651002883911,2.85,3.09,0.09,4.2
18.7549729347229,3.14,3.18,0.38,4.48
18.763109922409058,3.59,3.04,0.52,4.73
18.772839069366455,3.96,2.78,0.53,4.86
18.78179097175598,4.27,2.6,0.54,5.02
18.796321868896484,4.57,2.53,0.46,5.24
18.80492091178894,4.81,2.42,0.34,5.39
18.81311297416687,4.85,2.29,0.19,5.36
18.822805881500244,4.74,2.26,0.08,5.25
18.83181095123291,4.83,2.34,0.18,5.37
18.846492767333984,4.89,2.58,0.42,5.54
18.85491394996643,4.58,2.83,0.59,5.41
18.863059043884277,3.9,3.18,0.76,5.08
18.872800827026367,3.37,3.59,0.89,5.0
18.88181781768799,3.1,3.81,0.94,5.0
18.89636492729187,3.0,3.7,1.0,4.86
18.905333042144775,3.09,3.48,1.04,4.76
18.91319704055786,3.32,3.16,1.09,4.71
18.922718048095703,3.22,2.86,0.89,4.39
18.931888103485107,2.96,2.75,0.83,4.12
18.946516036987305,2.8,2.69,0.88,3.98
18.95528292655945,2.54,2.65,0.77,3.75
18.963157892227173,2.3,2.7,0.58,3.59
18.972973823547363,1.98,2.88,0.29,3.5
18.98195505142212,1.46,2.95,-0.07,3.29
18.996185779571533,0.83,3.03,-0.41,3.16
19.00532102584839,0.76,3.04,-0.46,3.16
19.013463973999023,0.73,2.89,-0.49,3.02
19.022955894470215,0.44,2.66,-0.63,2.76
19.032120943069458,-0.05,2.52,-0.53,2.57
19.046681880950928,-0.37,2.43,-0.25,2.47
19.055773973464966,-0.51,2.08,-0.03,2.14
19.063236951828003,-0.79,1.58,0.17,1.77
19.07318091392517,-1.18,1.16,0.44,1.71
19.0820050239563,-1.6,0.78,0.59,1.87
19.09647297859192,-1.89,0.44,0.58,2.02
19.105371952056885,-1.97,0.22,0.56,2.05
19.113178968429565,-2.09,0.05,0.37,2.12
19.122925758361816,-2.15,-0.14,0.3,2.17
19.131940841674805,-2.24,-0.22,0.42,2.28
19.14611577987671,-2.25,-0.24,0.61,2.34
19.155508041381836,-2.46,-0.33,0.7,2.57
19.1632239818573,-2.76,-0.4,0.57,2.84
19.173101902008057,-3.1,-0.24,0.42,3.13
19.18196678161621,-3.16,-0.05,0.27,3.17
19.196125984191895,-3.4,-0.09,-0.11,3.4
19.20523500442505,-3.33,-0.19,-0.38,3.35
19.213257789611816,-3.39,-0.43,-0.46,3.44
19.222908973693848,-3.59,-0.73,-0.5,3.69
19.232093811035156,-3.54,-0.93,-0.47,3.69
19.246123790740967,-3.58,-1.07,-0.53,3.77
19.255462884902954,-3.66,-1.25,-0.64,3.92
19.263189792633057,-3.53,-1.48,-0.63,3.87
19.2730770111084,-3.57,-1.9,-0.65,4.09
19.281981945037842,-3.76,-2.35,-0.68,4.48
19.296085834503174,-3.8,-2.77,-0.6,4.74
19.30537700653076,-3.84,-3.19,-0.55,5.02
19.31332778930664,-3.88,-3.49,-0.54,5.24
19.322983980178833,-3.85,-3.76,-0.46,5.4
19.332088947296143,-3.86,-4.03,-0.41,5.59
19.346077919006348,-3.92,-4.19,-0.33,5.74
19.355700969696045,-3.88,-4.29,-0.09,5.78
19.363317012786865,-3.92,-4.32,0.1,5.83
19.37319278717041,-3.97,-4.34,0.21,5.88
19.3821120262146,-4.07,-4.22,0.3,5.87
19.395919799804688,-4.15,-4.03,0.29,5.79
19.405642986297607,-4.14,-3.76,0.16,5.59
19.413409948349,-4.03,-3.54,-0.05,5.36
19.423029899597168,-3.89,-3.41,-0.22,5.17
19.432022094726562,-3.63,-3.15,-0.22,4.81
19.44602680206299,-3.41,-2.79,-0.17,4.4
19.455472946166992,-3.32,-2.45,-0.13,4.12
19.46339702606201,-3.39,-2.02,-0.04,3.94
19.473312854766846,-3.49,-1.64,0.16,3.85
19.4822199344635,-3.44,-1.49,0.33,3.76
19.496357917785645,-3.1,-1.39,0.49,3.43
19.506000995635986,-2.69,-1.28,0.62,3.04
19.51364278793335,-2.37,-1.07,0.55,2.65
19.523162841796875,-2.08,-0.74,0.5,2.26
19.53228998184204,-1.98,-0.36,0.31,2.03
19.54637908935547,-1.83,0.22,0.16,1.85
19.556034088134766,-1.48,0.75,-0.03,1.65
19.56368589401245,-1.22,1.1,-0.26,1.66
19.57334589958191,-1.31,1.51,-0.47,2.05
19.582303047180176,-1.39,1.86,-0.6,2.39
19.596482753753662,-1.35,1.91,-0.7,2.44
19.606072902679443,-1.14,1.87,-0.77,2.32
19.61366081237793,-0.64,2.02,-0.69,2.22
19.62328577041626,-0.21,2.13,-0.44,2.18
19.632343769073486,-0.16,2.21,-0.13,2.21
19.64638590812683,-0.32,2.35,0.2,2.38
19.656073093414307,-0.37,2.46,0.52,2.54
19.66362190246582,-0.3,2.48,0.75,2.6
19.673237800598145,0.02,2.48,0.85,2.62
19.682302951812744,0.66,2.44,0.82,2.65
19.696258068084717,1.15,2.43,0.79,2.8
19.70579195022583,1.57,2.53,0.74,3.06
19.713798999786377,1.81,2.61,0.58,3.22
19.723262786865234,2.04,2.61,0.28,3.32
19.732332944869995,2.49,2.55,0.03,3.56
19.746229887008667,3.14,2.51,-0.1,4.02
19.756114959716797,3.62,2.74,-0.15,4.54
19.763783931732178,3.88,2.99,-0.05,4.89
19.77342391014099,3.82,3.06,-0.02,4.89
19.782373905181885,3.71,3.17,0.08,4.88
19.796207904815674,3.85,3.28,0.23,5.06
19.80605697631836,4.09,3.28,0.3,5.25
19.813672065734863,4.27,3.17,0.4,5.33
19.823338985443115,4.36,3.04,0.55,5.34
19.832348823547363,4.4,2.96,0.77,5.35
19.846179008483887,4.23,3.0,1.02,5.28
19.856241941452026,4.0,3.09,1.34,5.22
19.863602876663208,3.76,3.16,1.72,5.2
19.873517990112305,3.62,3.28,1.88,5.23
19.88229489326477,3.51,3.33,1.94,5.21
19.89586305618286,3.41,3.2,1.89,5.04
19.905797004699707,3.34,2.97,1.85,4.83
19.91377305984497,3.38,2.76,1.78,4.71
19.92345380783081,3.45,2.56,1.67,4.6
19.932365894317627,3.59,2.26,1.49,4.49
19.946499824523926,3.91,1.99,1.2,4.54
19.95624089241028,3.95,1.75,0.8,4.39
19.963847875595093,3.55,1.81,0.44,4.0
19.973485946655273,3.39,2.19,0.28,4.04
19.982422828674316,2.95,2.8,0.14,4.06
19.996140003204346,2.19,3.63,-0.09,4.24
20.00618886947632,1.23,4.47,-0.25,4.64
20.013837814331055,0.71,5.02,-0.72,5.12
20.023590087890625,0.28,5.07,-1.19,5.21
20.03245496749878,-0.06,5.09,-1.45,5.29
20.045970916748047,-0.28,5.2,-1.14,5.33
20.056110858917236,-0.4,5.16,-0.57,5.2
20.063628911972046,-0.73,5.01,-0.04,5.06
20.07360291481018,-1.4,4.82,0.38,5.03
20.082360982894897,-1.97,4.7,0.72,5.14
20.095882892608643,-2.55,4.6,0.91,5.33
20.105958938598633,-3.03,4.41,0.94,5.43
20.113792896270752,-3.2,3.92,0.87,5.13
20.123466968536377,-3.25,3.35,0.69,4.71
20.132487773895264,-3.24,2.87,0.47,4.35
20.1459698677063,-3.11,2.32,0.25,3.88
20.15603494644165,-3.1,1.74,0.05,3.55
20.16372776031494,-3.24,1.2,-0.06,3.45
20.173361778259277,-3.43,0.79,-0.02,3.51
20.18241786956787,-3.62,0.28,0.07,3.63
20.19584608078003,-3.67,-0.39,0.14,3.69
20.205867767333984,-3.61,-1.07,0.2,3.77
20.213715076446533,-3.41,-1.65,0.28,3.79
20.223395824432373,-3.48,-2.06,0.36,4.05
20.232497930526733,-3.78,-2.29,0.31,4.43
20.245609760284424,-4.08,-2.49,0.24,4.78
20.255915880203247,-4.24,-2.75,0.26,5.06
20.26368999481201,-4.35,-3.1,0.12,5.34
20.27352285385132,-4.45,-3.51,-0.12,5.66
20.282562971115112,-4.41,-3.88,-0.39,5.88
20.295707941055298,-4.32,-4.21,-0.64,6.06
20.306025981903076,-4.2,-4.56,-0.85,6.25
20.31383490562439,-4.08,-4.89,-0.92,6.43
20.323452949523926,-4.08,-5.15,-0.84,6.62
20.332535982131958,-4.3,-5.37,-0.66,6.91
20.346142768859863,-4.44,-5.66,-0.42,7.2
20.35651993751526,-4.41,-5.93,-0.21,7.39
20.36410689353943,-4.22,-6.01,-0.16,7.34
20.373583793640137,-3.97,-5.94,-0.14,7.14
20.382699966430664,-3.78,-5.74,-0.21,6.87
20.396069049835205,-3.69,-5.51,-0.3,6.63
20.406349897384644,-3.59,-5.26,-0.38,6.37
20.413944959640503,-3.41,-4.95,-0.42,6.02
20.423553943634033,-3.37,-4.46,-0.5,5.61
20.43263292312622,-3.32,-3.76,-0.68,5.06
20.44585609436035,-3.12,-3.09,-0.98,4.49
20.45601797103882,-3.06,-2.52,-1.41,4.2
20.463762760162354,-3.15,-1.98,-1.73,4.1
20.473479747772217,-3.11,-1.49,-1.85,3.91
20.482597827911377,-2.84,-1.27,-1.84,3.61
20.495694875717163,-2.47,-1.21,-1.76,3.26
20.506112098693848,-2.16,-1.08,-1.62,2.9
20.51397395133972,-2.04,-0.9,-1.32,2.59
20.52355194091797,-2.34,-0.74,-0.88,2.6
20.532675981521606,-2.7,-0.57,-0.42,2.79
20.545753002166748,-2.9,-0.4,0.07,2.92
20.556055068969727,-2.81,-0.32,0.57,2.88
20.563805103302002,-2.58,-0.31,0.76,2.7
20.57343292236328,-2.56,-0.29,0.84,2.7
20.582725048065186,-2.59,-0.1,1.04,2.79
20.5956289768219,-2.55,0.15,1.11,2.78
20.606019020080566,-2.49,0.42,1.05,2.73
20.61388897895813,-2.34,0.81,1.09,2.7
20.623620986938477,-2.37,1.34,0.93,2.87
20.63271999359131,-2.47,1.83,0.62,3.13
20.6455659866333,-2.57,2.1,0.24,3.32
20.65615177154541,-2.78,2.27,-0.03,3.58
20.66383981704712,-2.54,2.53,-0.02,3.58
20.673383951187134,-2.08,2.71,0.18,3.42
20.682570934295654,-1.72,2.79,0.3,3.29
20.69547986984253,-0.97,2.68,0.44,2.88
20.7061448097229,-0.27,2.56,0.5,2.62
20.71402096748352,0.15,2.73,0.43,2.76
20.72331190109253,0.14,3.07,0.13,3.07
20.73265290260315,0.24,3.37,-0.04,3.37
20.74516487121582,0.4,3.44,-0.35,3.48
20.756096839904785,0.78,3.25,-0.76,3.42
20.763962984085083,1.36,3.09,-0.91,3.49
20.77332305908203,2.0,3.05,-0.7,3.71
20.782623767852783,2.32,3.15,-0.26,3.92
20.795294761657715,2.1,3.25,0.1,3.87
20.806096076965332,1.79,3.26,0.36,3.73
20.81398582458496,1.81,3.11,0.66,3.65
20.823410034179688,2.18,2.75,1.05,3.66
20.832865953445435,2.55,2.54,1.41,3.86
20.845531940460205,2.83,2.5,1.7,4.14
20.856141090393066,3.17,2.49,2.05,4.52
20.8639178276062,3.53,2.48,2.32,4.89
20.87338876724243,3.64,2.29,2.19,4.82
20.88265895843506,3.77,1.97,1.9,4.65
20.895174980163574,3.87,1.94,1.63,4.62
20.906068801879883,3.94,2.28,1.3,4.73
20.9140567779541,4.01,2.71,1.06,4.95
20.923362970352173,4.14,2.85,0.84,5.09
20.932671070098877,4.21,2.7,0.5,5.02
20.945405960083008,4.52,2.42,0.26,5.13
20.956212997436523,4.91,2.22,0.22,5.39
20.963983058929443,4.97,2.18,0.38,5.44
20.97350788116455,5.11,2.17,0.63,5.58
20.982892990112305,5.31,2.08,0.86,5.76
20.99554681777954,5.27,2.16,1.13,5.8
21.006337881088257,4.97,2.45,1.5,5.74
21.01399803161621,4.33,2.85,1.91,5.52
21.02351689338684,3.8,3.39,2.04,5.48
21.033036947250366,3.86,3.71,1.67,5.6
21.04532480239868,3.66,3.77,1.17,5.38
21.056269884109497,3.42,3.74,0.55,5.09
21.06402897834778,3.22,3.8,-0.03,4.98
21.073561906814575,2.7,4.09,-0.45,4.92
21.082901000976562,2.18,4.42,-0.65,4.97
21.095244884490967,1.68,4.48,-0.72,4.83
21.10629177093506,1.32,4.2,-0.52,4.43
21.114141941070557,0.75,3.94,0.03,4.01
21.123551845550537,0.07,3.84,0.7,3.9
21.132946968078613,-0.63,3.81,1.24,4.05
21.14543104171753,-1.26,3.78,1.56,4.27
21.15639090538025,-1.83,3.63,1.46,4.31
21.164077758789062,-2.1,3.11,1.09,3.9
21.173675060272217,-1.93,2.3,0.45,3.03
21.18295192718506,-1.54,1.59,-0.12,2.21
21.195528984069824,-1.34,1.26,-0.46,1.89
21.20650887489319,-1.44,1.26,-0.66,2.02
21.21434497833252,-1.8,1.34,-0.79,2.37
21.22352409362793,-2.48,1.46,-0.9,3.01
21.233038902282715,-3.13,1.62,-0.77,3.6
21.2452609539032,-3.69,1.56,-0.63,4.05
21.256442070007324,-3.89,1.25,-0.52,4.11
21.264141082763672,-3.67,0.87,-0.28,3.78
21.273860931396484,-3.29,0.54,-0.01,3.33
21.282965898513794,-3.13,0.03,0.12,3.13
21.295372009277344,-3.35,-0.62,0.15,3.41
21.306447982788086,-3.76,-1.23,0.16,3.95
21.314260005950928,-4.03,-1.66,0.11,4.35
21.32357692718506,-4.31,-1.78,0.08,4.66
21.33303689956665,-4.59,-1.97,0.06,4.99
21.34525990486145,-4.74,-2.39,-0.06,5.3
21.356565952301025,-4.82,-2.85,-0.42,5.61
21.36425495147705,-4.57,-3.15,-0.63,5.58
21.373642921447754,-4.11,-3.36,-0.72,5.35
21.38292098045349,-3.92,-3.61,-0.74,5.38
21.39485788345337,-3.87,-3.84,-0.77,5.5
21.40650177001953,-3.72,-4.06,-0.79,5.56
21.4143168926239,-3.79,-4.14,-0.69,5.65
21.423637866973877,-4.03,-4.26,-0.53,5.88
21.433265924453735,-4.24,-4.44,-0.35,6.14
21.445344924926758,-4.31,-4.5,-0.18,6.23
21.4566969871521,-4.17,-4.48,0.05,6.12
21.46426296234131,-4.09,-4.53,0.25,6.1
21.473819971084595,-3.97,-4.57,0.4,6.06
21.483085870742798,-3.77,-4.49,0.47,5.88
21.495155811309814,-3.66,-4.29,0.45,5.65
21.506514072418213,-3.65,-3.97,0.38,5.4
21.51440191268921,-3.58,-3.54,0.2,5.03
21.52363896369934,-3.56,-3.08,-0.01,4.7
21.53316593170166,-3.43,-2.6,-0.37,4.31
21.54499888420105,-3.3,-2.2,-0.73,4.03
21.55651092529297,-3.18,-1.93,-0.94,3.83
21.564308881759644,-2.95,-1.67,-1.08,3.55
21.573850870132446,-2.75,-1.36,-1.09,3.25
21.583082914352417,-2.49,-1.12,-0.92,2.88
21.594876766204834,-2.37,-0.88,-0.68,2.61
21.60654592514038,-2.45,-0.66,-0.46,2.57
21.614423751831055,-2.48,-0.47,-0.21,2.53
21.62359094619751,-2.59,-0.12,-0.08,2.59
21.63301706314087,-2.69,0.4,0.05,2.72
21.644821882247925,-2.72,0.89,0.0,2.86
21.656506061553955,-2.45,1.07,-0.06,2.67
21.664257049560547,-2.0,1.17,-0.19,2.32
21.67389678955078,-1.49,1.22,-0.3,1.94
21.682926893234253,-1.7,1.3,-0.48,2.19
21.6947340965271,-1.85,1.45,-0.52,2.4
21.706674098968506,-1.91,1.6,-0.43,2.52
21.71458888053894,-1.88,1.77,-0.27,2.59
21.723846912384033,-1.75,2.07,-0.01,2.71
21.73324990272522,-1.73,2.49,0.22,3.03
21.7449369430542,-1.55,2.78,0.45,3.21
21.756494998931885,-1.14,2.78,0.58,3.06
21.764400959014893,-0.7,2.66,0.63,2.82
21.773964881896973,-0.38,2.39,0.56,2.48
21.7831768989563,-0.25,2.07,0.27,2.1
21.79466485977173,-0.04,1.87,0.09,1.87
21.806575775146484,0.29,1.84,0.0,1.86
21.81455397605896,0.58,1.89,-0.09,1.97
21.823802947998047,0.86,2.06,-0.01,2.23
21.833271026611328,0.99,2.24,0.01,2.44
21.84484100341797,0.99,2.23,-0.01,2.43
21.856629848480225,1.24,2.2,0.08,2.52
21.86451482772827,1.97,2.0,0.37,2.83
21.87406086921692,2.57,1.61,0.57,3.08
21.88312005996704,3.12,1.31,0.57,3.43
21.89486289024353,3.62,1.35,0.51,3.89
21.906651973724365,3.83,1.61,0.72,4.21
21.914458751678467,3.8,2.08,1.0,4.44
21.923902988433838,3.91,2.49,1.19,4.78
21.93331789970398,4.43,2.67,1.22,5.31
21.944835901260376,4.98,2.79,1.1,5.81
21.95661497116089,5.23,2.89,0.93,6.04
21.964385986328125,5.58,3.04,0.87,6.41
21.97403907775879,6.12,3.22,0.89,6.97
21.983229875564575,6.11,3.24,0.67,6.94
21.994940757751465,6.04,3.19,0.61,6.85
22.006714820861816,5.88,3.4,0.67,6.82
22.014575004577637,5.47,3.73,0.88,6.67
22.02401089668274,5.06,4.08,1.06,6.58
22.033398866653442,4.68,4.27,1.15,6.43
22.04463791847229,4.21,4.41,1.31,6.23
22.05673885345459,3.75,4.54,1.46,6.06
22.064531803131104,3.62,4.51,1.61,6.0
22.074066877365112,3.77,4.37,1.63,5.99
22.083329916000366,3.89,4.19,1.45,5.89
22.094733953475952,3.81,4.11,1.3,5.75
22.106852054595947,3.44,4.15,1.16,5.51
22.114885807037354,2.94,4.18,1.01,5.2
22.124022006988525,2.63,3.99,0.83,4.85
22.13343095779419,2.34,3.78,0.68,4.49
22.144658088684082,1.84,3.77,0.57,4.23
22.15688705444336,1.33,3.75,0.51,4.01
22.16458296775818,0.92,3.43,0.47,3.58
22.17415690422058,0.2,3.24,0.37,3.26
22.183438777923584,-0.46,3.32,0.4,3.37
22.19473886489868,-0.73,3.05,0.5,3.17
22.20679497718811,-1.06,2.47,0.44,2.72
22.214757919311523,-1.4,2.0,0.41,2.47
22.224040985107422,-1.74,1.68,0.28,2.43
22.23346710205078,-1.97,1.37,0.03,2.39
22.24465799331665,-2.38,1.01,-0.3,2.6
22.25692391395569,-2.94,0.74,-0.35,3.05
22.264654874801636,-3.56,0.9,-0.05,3.67
22.274069786071777,-3.83,0.99,0.44,3.98
22.28336477279663,-4.0,0.79,0.75,4.14
22.294595956802368,-4.14,0.32,0.77,4.22
22.30699396133423,-4.28,-0.19,0.7,4.34
22.314752101898193,-4.4,-0.59,0.59,4.47
22.324119091033936,-4.57,-0.96,0.49,4.69
22.3334698677063,-4.82,-1.29,0.16,4.99
22.344594955444336,-5.06,-1.62,-0.27,5.31
22.3570339679718,-5.09,-1.95,-0.59,5.48
22.364710807800293,-5.12,-2.18,-0.87,5.63
22.3742458820343,-5.16,-2.44,-1.24,5.84
22.38355302810669,-5.13,-2.73,-1.68,6.04
22.39446997642517,-5.05,-3.1,-2.08,6.28
22.40702986717224,-4.97,-3.45,-2.28,6.46
22.414762020111084,-4.91,-3.78,-2.2,6.57
22.42398977279663,-4.89,-4.06,-1.88,6.62
22.43330478668213,-4.87,-4.24,-1.48,6.62
22.444506883621216,-4.79,-4.46,-1.04,6.62
22.457139015197754,-4.75,-4.74,-0.78,6.75
22.464797019958496,-4.66,-4.95,-0.67,6.83
22.474567890167236,-4.49,-5.04,-0.54,6.77
22.483561038970947,-4.29,-4.91,-0.55,6.54
22.49497079849243,-4.09,-4.69,-0.8,6.27
22.507137775421143,-3.9,-4.46,-1.1,6.02
22.514925956726074,-3.83,-4.29,-1.46,5.93
22.52422595024109,-3.72,-4.12,-1.73,5.81
22.53364896774292,-3.53,-3.98,-1.83,5.62
22.544595956802368,-3.48,-3.63,-1.79,5.33
22.55702781677246,-3.59,-3.14,-1.61,5.03
22.564748764038086,-3.74,-2.72,-1.23,4.78
22.574234008789062,-3.86,-2.3,-0.83,4.56
22.58354902267456,-3.9,-1.89,-0.39,4.35
22.59456777572632,-3.85,-1.36,0.06,4.08
22.607091903686523,-3.67,-0.94,0.44,3.81
22.614840984344482,-3.5,-0.73,0.65,3.63
22.62417697906494,-3.46,-0.41,0.66,3.54
22.633617877960205,-3.39,0.0,0.62,3.44
22.644600868225098,-3.25,0.32,0.66,3.33
22.657039880752563,-3.04,0.7,0.8,3.22
22.66477680206299,-2.74,1.05,0.92,3.07
22.674669981002808,-2.49,1.29,1.06,2.99
22.6836359500885,-2.42,1.45,1.18,3.05
22.694357872009277,-2.33,1.62,1.38,3.15
22.707079887390137,-2.32,1.92,1.46,3.34
22.71488904953003,-2.31,2.33,1.36,3.55
22.72428607940674,-2.25,2.67,1.05,3.64
22.733656883239746,-1.92,2.78,0.48,3.41
22.744544982910156,-1.32,2.63,-0.25,2.95
22.757309913635254,-0.79,2.61,-1.04,2.91
22.76490092277527,-0.31,2.65,-1.69,3.15
22.7744460105896,0.25,2.48,-2.19,3.31
22.783565044403076,0.77,2.1,-2.43,3.3
22.794125080108643,1.05,1.71,-2.31,3.05
22.807087898254395,1.12,1.36,-1.87,2.56
22.81510591506958,1.05,1.16,-1.28,2.02
22.82428288459778,0.96,1.25,-0.62,1.69
22.833746910095215,0.84,1.44,0.17,1.67
22.844254970550537,0.88,1.7,0.65,2.02
22.857161045074463,1.28,1.69,0.86,2.28
22.864922046661377,1.65,1.84,0.91,2.63
22.874454975128174,1.96,2.4,0.57,3.15
22.88368797302246,1.46,3.35,0.31,3.66
22.89443588256836,2.13,4.72,1.05,5.28
22.907168865203857,2.73,4.45,1.58,5.45
22.915069103240967,2.64,3.66,1.49,4.75
22.92427086830139,2.7,3.48,1.54,4.66
22.933738946914673,2.66,3.81,1.84,4.99
22.944073915481567,3.07,3.94,2.45,5.56
22.95723009109497,3.25,3.74,2.65,5.61
22.964941024780273,3.31,3.54,2.42,5.41
22.974287033081055,3.84,3.54,1.91,5.56
22.98373794555664,4.59,3.75,1.19,6.04
22.994410037994385,4.99,3.97,0.27,6.38
23.007205963134766,4.95,4.09,-0.33,6.42
23.015060901641846,5.26,4.26,-0.52,6.78
23.024171829223633,5.59,4.26,-0.24,7.03
23.03394603729248,5.45,4.27,0.31,6.93
23.044440984725952,4.51,4.31,0.85,6.29
23.057297945022583,3.83,4.51,1.13,6.02
23.065011024475098,3.63,4.71,1.57,6.15
23.07447576522827,3.5,4.5,1.94,6.02
23.083646774291992,3.47,4.26,2.1,5.88
23.094032764434814,3.59,4.24,2.15,5.95
23.1072199344635,3.64,4.0,2.14,5.81
23.114998817443848,3.27,3.41,2.17,5.19
23.12437891960144,2.83,3.06,2.01,4.62
23.13380193710327,2.44,2.85,1.84,4.17
23.144065856933594,2.02,2.73,1.29,3.63
23.157221794128418,1.48,2.67,0.71,3.13
23.16501808166504,0.89,2.64,0.18,2.79
23.174433946609497,0.23,2.82,-0.33,2.84
23.183929920196533,-0.21,3.12,-0.62,3.18
23.194166898727417,-0.31,3.04,-0.9,3.18
23.207196950912476,-0.03,2.33,-1.09,2.57
23.21508502960205,0.44,1.47,-0.87,1.76
23.224466800689697,0.95,0.96,-0.29,1.38
23.233767986297607,1.15,0.81,0.44,1.47
23.243907928466797,0.84,1.03,1.11,1.73
23.25719404220581,0.12,1.28,1.45,1.93
23.26513385772705,-0.94,1.46,1.48,2.28
23.27452802658081,-1.46,1.71,1.56,2.73
23.283833026885986,-1.29,1.97,1.74,2.92
23.293941974639893,-1.36,2.02,1.51,2.86
23.307480812072754,-1.68,1.81,0.84,2.6
23.31515884399414,-1.72,1.43,0.16,2.24
23.324531078338623,-1.93,0.95,-0.47,2.2
23.333940029144287,-2.41,0.5,-0.9,2.62
23.343873023986816,-2.53,0.36,-1.1,2.78
23.357315063476562,-2.97,0.2,-1.05,3.15
23.36520290374756,-3.38,-0.46,-0.95,3.54
23.374579906463623,-3.5,-1.17,-0.78,3.77
23.384108066558838,-3.61,-1.6,-0.42,3.97
23.394217014312744,-3.58,-1.88,-0.09,4.04
23.40765690803528,-3.74,-2.12,0.04,4.29
23.415103912353516,-4.25,-2.29,0.02,4.82
23.424520015716553,-4.65,-2.34,0.16,5.2
23.433841943740845,-4.88,-2.47,0.18,5.47
23.44391393661499,-4.99,-2.66,0.25,5.66
23.45735788345337,-4.83,-2.83,0.1,5.59
23.465281009674072,-4.55,-3.02,-0.18,5.46
23.474535942077637,-4.4,-3.17,-0.64,5.46
23.48398494720459,-4.37,-3.35,-0.95,5.58
23.493928909301758,-4.2,-3.62,-1.03,5.63
23.507492065429688,-4.19,-3.75,-1.02,5.71
23.51518988609314,-4.32,-3.62,-0.9,5.7
23.52445387840271,-4.32,-3.38,-0.66,5.52
23.534101009368896,-4.43,-3.2,-0.52,5.48
23.54380989074707,-4.5,-3.18,-0.41,5.52
23.557397842407227,-4.35,-3.25,-0.39,5.44
23.56524896621704,-4.37,-3.46,-0.4,5.58
23.57466983795166,-4.47,-3.58,-0.54,5.75
23.58403491973877,-4.63,-3.55,-0.67,5.87
23.59378480911255,-4.74,-3.49,-0.71,5.92
23.607614994049072,-4.75,-3.41,-0.7,5.88
23.615272045135498,-4.69,-3.2,-0.72,5.72
23.62466287612915,-4.67,-2.9,-0.68,5.53
23.63400387763977,-4.73,-2.68,-0.62,5.47
23.64386796951294,-4.94,-2.49,-0.6,5.56
23.657588005065918,-5.35,-2.1,-0.42,5.76
23.665307998657227,-5.52,-1.7,-0.15,5.77
23.674667835235596,-5.42,-1.39,-0.02,5.59
23.684081077575684,-5.23,-1.19,0.02,5.36
23.693821907043457,-5.07,-1.05,-0.09,5.17
23.70756196975708,-4.72,-0.76,0.07,4.78
23.71539306640625,-4.3,-0.47,0.24,4.33
23.72479796409607,-4.1,-0.19,0.41,4.12
23.7341947555542,-4.12,0.37,0.62,4.18
23.743971824645996,-4.11,0.75,0.49,4.2
23.757526874542236,-3.86,0.76,0.04,3.93
23.765361785888672,-3.39,0.69,-0.4,3.48
23.774747848510742,-2.81,1.14,-0.73,3.11
23.784137964248657,-2.09,1.88,-0.83,2.93
23.793931007385254,-1.69,2.17,-1.07,2.95
23.807633876800537,-1.49,2.1,-1.4,2.93
23.815342903137207,-0.99,2.01,-1.82,2.88
23.824691772460938,-0.37,2.07,-1.96,2.87
23.834070920944214,0.22,2.41,-1.69,2.95
23.844064950942993,0.43,2.74,-1.29,3.05
23.857568979263306,0.3,3.05,-1.13,3.26
23.865431785583496,0.58,3.58,-0.78,3.7
23.874873876571655,1.17,4.06,-0.17,4.22
23.884228944778442,1.43,4.13,0.26,4.37
23.894046783447266,1.63,3.97,0.44,4.31
23.90767002105713,2.19,3.91,0.74,4.54
23.915465831756592,2.96,4.14,1.06,5.19
23.924811840057373,3.35,4.16,1.09,5.45
23.93416976928711,3.71,3.82,0.87,5.39
23.944031953811646,4.28,3.36,0.81,5.5
23.957709789276123,4.67,3.17,0.73,5.69
23.965471982955933,5.14,3.33,0.98,6.2
23.97493600845337,5.49,3.62,1.25,6.69
23.984282970428467,5.32,4.02,1.28,6.78
23.99430274963379,5.12,4.52,1.42,6.97
24.00777292251587,5.03,4.81,1.47,7.11
24.015321969985962,5.06,4.88,1.46,7.17
24.024778842926025,5.48,4.85,1.48,7.46
24.034214973449707,6.02,4.87,1.53,7.89
24.044099807739258,6.24,5.01,1.58,8.15
24.05761480331421,5.75,5.29,1.52,7.95
24.065385818481445,4.96,5.5,1.36,7.53
24.074833869934082,4.47,5.46,1.19,7.15
24.084276914596558,4.32,5.27,1.04,6.89
24.094213008880615,4.43,5.11,1.01,6.83
24.10746192932129,4.52,4.91,0.97,6.74
24.115492820739746,4.32,4.59,0.78,6.35
24.12483787536621,3.97,4.42,0.6,5.97
24.13428497314453,3.62,4.37,0.51,5.69
24.144236087799072,3.17,4.22,0.48,5.29
24.157346963882446,2.7,4.1,0.51,4.93
24.165494918823242,2.53,4.01,0.65,4.78
24.174943923950195,2.61,3.75,0.64,4.61
24.184363842010498,2.56,3.28,0.45,4.18
24.194156885147095,2.2,2.88,0.28,3.63
24.207427978515625,1.88,2.48,0.14,3.11
24.21561098098755,1.75,1.99,-0.15,2.65
24.224956035614014,1.46,1.56,-0.4,2.17
24.234317779541016,0.95,1.42,-0.58,1.8
24.24426293373108,0.44,1.76,-0.57,1.9
24.257405757904053,-0.25,2.35,-0.15,2.36
24.265580892562866,-1.4,2.97,0.09,3.28
24.27494192123413,-2.33,3.27,0.26,4.02
24.284449100494385,-3.16,3.29,0.36,4.57
24.29421591758728,-3.78,3.23,0.4,4.98
24.307381868362427,-3.86,3.05,0.46,4.94
24.31565284729004,-3.62,2.86,0.43,4.63
24.324955940246582,-3.65,2.7,0.35,4.55
24.334367752075195,-3.99,2.5,0.22,4.71
24.34427309036255,-4.28,2.26,0.1,4.84
24.357298851013184,-4.62,2.41,-0.1,5.21
24.36551594734192,-4.76,2.55,0.03,5.4
24.375081062316895,-5.0,2.32,0.23,5.51
24.38450288772583,-5.18,1.83,0.27,5.5
24.39440393447876,-4.94,1.37,0.46,5.14
24.407437801361084,-4.78,0.79,0.55,4.87
24.415620803833008,-4.72,-0.01,0.5,4.74
24.425286769866943,-4.32,-0.79,0.38,4.4
24.43444299697876,-4.09,-1.43,0.24,4.33
24.444368839263916,-4.13,-1.92,-0.06,4.55
24.45757007598877,-4.21,-2.35,-0.36,4.83
24.46568989753723,-4.34,-2.71,-0.6,5.15
24.475194931030273,-4.55,-3.03,-0.78,5.52
24.484570026397705,-4.51,-3.29,-0.91,5.65
24.494338989257812,-4.24,-3.51,-0.96,5.58
24.507471084594727,-3.93,-3.72,-1.04,5.51
24.515832901000977,-3.8,-3.87,-1.13,5.54
24.525105953216553,-3.92,-4.07,-1.14,5.76
24.534465789794922,-4.2,-4.35,-1.16,6.15
24.544315814971924,-4.34,-4.67,-1.16,6.47
24.55747890472412,-4.41,-4.98,-0.99,6.72
24.565659999847412,-4.42,-5.18,-0.81,6.85
24.57523202896118,-4.2,-5.38,-0.47,6.84
24.584560871124268,-4.03,-5.51,-0.3,6.83
24.59427309036255,-3.87,-5.51,-0.34,6.74
24.60748791694641,-3.72,-5.34,-0.45,6.52
24.615750789642334,-3.78,-4.94,-0.69,6.25
24.625065803527832,-3.64,-4.6,-1.07,5.96
24.634437084197998,-3.58,-4.29,-1.34,5.74
24.6442289352417,-3.58,-3.72,-1.43,5.35
24.65758991241455,-3.71,-3.07,-1.29,4.98
24.665693759918213,-3.72,-2.77,-1.05,4.75
24.67512607574463,-3.57,-2.64,-0.87,4.52
24.684571981430054,-3.5,-2.33,-0.61,4.24
24.69448494911194,-3.57,-1.89,-0.29,4.04
24.70738196372986,-3.57,-1.58,-0.15,3.9
24.715850830078125,-3.54,-1.24,-0.11,3.75
24.72509789466858,-3.51,-0.84,0.06,3.6
24.734500885009766,-3.63,-0.51,0.05,3.66
24.744487762451172,-3.7,-0.2,0.02,3.7
24.75752592086792,-3.35,0.12,-0.06,3.35
24.765639781951904,-3.35,0.37,-0.29,3.38
24.775128841400146,-3.52,0.45,-0.61,3.6
24.78464984893799,-3.54,0.43,-0.88,3.67
24.794466018676758,-3.51,0.45,-0.99,3.67
24.807662963867188,-3.05,0.49,-0.85,3.2
24.81584095954895,-2.53,0.65,-0.62,2.68
24.825170040130615,-2.38,0.88,-0.63,2.61
24.83453893661499,-2.47,1.4,-0.5,2.88
24.84462594985962,-2.44,2.27,-0.16,3.33
24.857667922973633,-2.34,3.17,0.18,3.94
24.865797996520996,-2.13,3.74,0.38,4.32
24.875147819519043,-2.15,3.97,0.2,4.51
24.88473391532898,-1.92,4.17,-0.06,4.59
24.89456295967102,-1.3,4.11,-0.31,4.32
24.907594919204712,-0.88,3.76,-0.67,3.91
24.9159197807312,-0.33,3.58,-0.78,3.67
24.925264835357666,0.02,3.45,-0.76,3.53
24.934648036956787,0.21,3.31,-0.62,3.37
24.94456696510315,0.55,3.27,-0.41,3.34
24.957571029663086,0.72,2.97,-0.06,3.05
24.965728759765625,1.19,2.56,0.39,2.84
24.97518301010132,1.66,2.23,0.77,2.88
24.984652996063232,2.18,2.35,1.01,3.36
24.99449896812439,2.53,2.62,1.16,3.82
25.00770592689514,2.67,2.61,1.18,3.91
25.01594877243042,2.68,2.49,1.02,3.79
25.025306940078735,2.89,2.5,1.09,3.97
25.034682750701904,3.39,2.62,1.27,4.46
25.04460906982422,3.9,2.71,1.42,4.95
25.05776596069336,4.22,2.91,1.5,5.34
25.06593894958496,4.41,3.2,1.47,5.64
25.075321912765503,4.6,3.48,1.27,5.9
25.084694862365723,4.76,3.73,1.01,6.13
25.09466290473938,4.94,4.04,0.77,6.42
25.107823848724365,4.99,4.3,0.72,6.62
25.115982055664062,4.85,4.58,0.59,6.69
25.125314950942993,4.95,4.99,0.61,7.05
25.134686946868896,4.94,5.56,0.71,7.47
25.14472794532776,4.5,5.98,0.69,7.51
25.1577467918396,3.85,6.06,0.59,7.2
25.16595983505249,3.56,5.94,0.54,6.94
25.175346851348877,3.62,5.71,0.55,6.78
25.185136795043945,3.81,5.39,0.6,6.62
25.194779872894287,3.87,4.92,0.64,6.29
25.21338391304016,3.7,4.47,0.7,5.84
25.216309070587158,3.36,4.13,0.81,5.38
25.225311756134033,3.03,3.98,0.97,5.09
25.235050916671753,2.89,3.97,1.06,5.02
25.2446928024292,2.61,3.97,0.98,4.85
25.263256072998047,2.2,3.85,0.73,4.49
25.266175985336304,1.86,3.72,0.46,4.18
25.27539300918579,1.55,3.52,0.2,3.85
25.285115957260132,1.08,3.23,0.09,3.4
25.294840812683105,0.78,2.94,0.22,3.04
25.3131160736084,0.47,2.65,0.39,2.71
25.316072940826416,0.07,2.29,0.49,2.34
25.325416088104248,-0.39,1.9,0.62,2.03
25.335219860076904,-0.62,1.57,0.7,1.82
25.34493589401245,-1.06,1.6,0.68,2.03
25.363492012023926,-1.63,1.96,0.52,2.6
25.36640691757202,-1.99,2.35,0.12,3.08
25.37549591064453,-2.42,2.46,-0.55,3.49
25.385037899017334,-2.87,2.46,-0.99,3.9
25.395067930221558,-3.48,2.54,-1.31,4.5
25.413300037384033,-3.74,2.47,-1.4,4.69
25.416346073150635,-3.49,2.25,-1.25,4.33
25.42548394203186,-3.43,1.95,-0.96,4.06
25.435144901275635,-3.57,1.52,-0.78,3.95
25.444938898086548,-3.93,0.98,-0.48,4.07
25.463217973709106,-4.21,0.64,-0.29,4.26
25.466134071350098,-4.37,0.48,-0.24,4.4
25.47560405731201,-4.73,0.39,-0.39,4.76
25.48523497581482,-4.72,0.17,-0.42,4.74
25.494956016540527,-4.71,-0.46,-0.54,4.76
25.51285195350647,-4.85,-1.31,-0.78,5.08
25.51617193222046,-4.58,-2.12,-0.87,5.12
25.525577068328857,-4.11,-2.66,-0.65,4.93
25.53530192375183,-3.85,-3.08,-0.35,4.94
25.54503297805786,-3.77,-3.39,-0.06,5.07
25.563241958618164,-3.84,-3.63,0.29,5.29
25.566184997558594,-4.02,-3.83,0.54,5.57
25.575676918029785,-4.45,-3.96,0.64,5.99
25.58529806137085,-4.59,-4.22,0.61,6.26
25.595021963119507,-4.37,-4.58,0.56,6.35
25.613014936447144,-3.96,-4.86,0.54,6.29
25.616132974624634,-3.57,-5.02,0.62,6.19
25.62561798095703,-3.29,-5.09,0.66,6.09
25.63531994819641,-3.23,-5.08,0.62,6.05
25.645092964172363,-3.36,-5.09,0.53,6.12
25.662821769714355,-3.37,-5.12,0.32,6.13
25.66608476638794,-3.24,-5.16,0.02,6.09
25.675654888153076,-3.02,-5.26,-0.22,6.06
25.685285091400146,-3.03,-5.28,-0.4,6.1
25.69500207901001,-3.12,-5.13,-0.51,6.02
25.712740898132324,-3.33,-4.95,-0.4,5.97
25.716301918029785,-3.46,-4.7,-0.34,5.84
25.725706100463867,-3.55,-4.38,-0.42,5.65
25.73540186882019,-3.61,-4.04,-0.4,5.43
25.745184898376465,-3.88,-3.71,-0.39,5.38
25.762739896774292,-4.14,-3.4,-0.35,5.36
25.766113758087158,-4.36,-2.93,-0.21,5.25
25.775691032409668,-4.62,-2.5,-0.12,5.25
25.78529977798462,-4.64,-2.23,-0.07,5.14
25.794965982437134,-4.47,-1.95,-0.11,4.87
25.812535762786865,-4.25,-1.68,-0.18,4.57
25.816338062286377,-4.16,-1.34,-0.21,4.37
25.825702905654907,-4.18,-0.88,-0.19,4.27
25.835339069366455,-4.16,-0.54,-0.23,4.2
25.845173835754395,-3.93,-0.26,-0.38,3.95
25.862730026245117,-3.72,0.09,-0.44,3.74
25.866235971450806,-3.81,0.57,-0.4,3.87
25.875765800476074,-3.91,0.92,-0.23,4.02
25.88536500930786,-3.9,1.16,-0.15,4.07
25.895044803619385,-3.73,1.49,-0.1,4.01
25.912384033203125,-3.42,1.95,-0.01,3.93
25.91636896133423,-3.09,2.42,0.04,3.92
25.925734043121338,-2.85,2.84,-0.09,4.02
25.93541193008423,-2.61,3.29,-0.28,4.2
25.945262908935547,-2.42,3.7,-0.37,4.43
25.962603092193604,-2.36,3.89,-0.51,4.57
25.966306924819946,-2.29,3.96,-0.43,4.59
25.975759983062744,-2.04,3.95,-0.25,4.45
25.985372066497803,-1.39,3.91,-0.4,4.16
25.99522089958191,-0.46,4.05,-0.44,4.09
26.01268696784973,0.13,4.27,-0.1,4.27
26.016356945037842,-0.06,4.46,0.18,4.46
26.025794982910156,-0.27,4.56,0.52,4.59
26.035605907440186,-1.42,6.32,-0.49,6.49
26.045175075531006,-2.27,8.71,-2.72,9.4
26.06354284286499,2.75,7.21,0.41,7.72
26.066461086273193,5.79,5.06,4.84,9.08
26.075710773468018,5.53,3.88,6.46,9.34
26.085412979125977,3.41,3.04,5.87,7.43
26.095149040222168,1.61,2.0,4.48,5.16
26.113439083099365,1.68,2.2,3.2,4.23
26.116400957107544,1.64,2.97,1.82,3.85
26.125854015350342,2.62,3.49,0.72,4.42
26.135406017303467,3.76,3.71,-0.09,5.28
26.14515781402588,4.05,3.74,-0.63,5.54
26.162559032440186,4.09,3.58,-0.95,5.51
26.166332960128784,4.42,3.07,-1.35,5.54
26.175851821899414,4.65,2.36,-1.65,5.46
26.185431003570557,4.61,2.01,-1.4,5.22
26.195044994354248,4.39,2.16,-0.57,4.92
26.2122540473938,4.07,2.52,0.33,4.79
26.216437816619873,4.01,2.58,1.07,4.88
26.22574281692505,4.12,2.54,1.41,5.04
26.23556900024414,4.22,2.7,1.66,5.27
26.24515390396118,4.04,2.94,1.66,5.26
26.262633800506592,3.64,2.98,1.42,4.91
26.26642894744873,3.41,2.91,1.24,4.65
26.275925874710083,3.59,2.97,1.15,4.79
26.285504817962646,3.86,3.09,1.07,5.05
26.29522705078125,3.66,3.17,1.03,4.95
26.312439918518066,3.23,3.34,0.94,4.74
26.31635093688965,2.92,3.63,0.95,4.75
26.32575297355652,2.62,3.88,0.91,4.76
26.335447788238525,2.26,3.87,0.75,4.54
26.345263957977295,2.01,3.78,0.6,4.32
26.362475872039795,1.74,3.65,0.42,4.06
26.3663489818573,1.5,3.57,0.33,3.88
26.376025915145874,1.21,3.41,0.12,3.62
26.385666847229004,0.88,3.04,-0.04,3.16
26.39543581008911,0.69,2.68,-0.07,2.76
26.412492752075195,0.05,2.51,0.02,2.51
26.41658592224121,-0.57,2.38,0.06,2.44
26.425963878631592,-0.92,2.28,0.15,2.46
26.435773849487305,-0.94,2.23,0.25,2.43
26.445204973220825,-0.92,2.07,0.46,2.31
26.46226692199707,-1.0,1.91,0.44,2.2
26.466504096984863,-0.9,1.84,0.26,2.06
26.475948810577393,-0.93,1.76,0.12,1.99
26.48561692237854,-1.33,1.74,-0.01,2.19
26.495466947555542,-1.77,1.78,-0.1,2.51
26.512292861938477,-1.65,1.81,-0.17,2.45
26.516584873199463,-1.58,1.83,0.02,2.41
26.525810956954956,-1.55,1.83,0.4,2.43
26.535818099975586,-1.77,1.49,0.53,2.37
26.545467853546143,-1.97,1.02,0.55,2.28
26.562493801116943,-1.91,0.62,0.67,2.11
26.56661605834961,-1.88,0.32,0.74,2.04
26.576031923294067,-2.13,0.13,0.69,2.24
26.58575677871704,-2.37,0.02,0.54,2.43
26.595517873764038,-2.67,-0.06,0.23,2.68
26.61244487762451,-2.88,-0.18,-0.2,2.89
26.616756916046143,-2.87,-0.3,-0.59,2.94
26.626025915145874,-2.77,-0.5,-0.97,2.97
26.63584589958191,-2.55,-0.77,-1.14,2.89
26.64551877975464,-2.4,-1.03,-1.12,2.84
26.662205934524536,-2.72,-1.34,-1.01,3.19
26.666605949401855,-3.23,-1.52,-0.68,3.63
26.67609977722168,-3.1,-1.45,-0.19,3.42
26.68571901321411,-3.41,-1.44,0.16,3.7
26.695480823516846,-3.52,-1.68,0.35,3.91
26.711984872817993,-3.54,-2.06,0.54,4.13
26.716793060302734,-3.63,-2.46,0.6,4.42
26.726144790649414,-3.55,-2.77,0.55,4.53
26.735727787017822,-3.29,-3.16,0.44,4.58
26.745718955993652,-3.13,-3.63,0.24,4.79
26.762202978134155,-3.28,-4.05,-0.01,5.21
26.766632080078125,-3.6,-4.44,-0.1,5.71
26.77616310119629,-3.94,-4.56,0.01,6.02
26.785706043243408,-4.03,-4.52,0.3,6.06
26.795598030090332,-4.27,-4.51,0.59,6.23
26.812303066253662,-4.43,-4.63,0.69,6.44
26.81676483154297,-4.54,-4.76,0.56,6.6
26.826222896575928,-4.64,-4.75,0.39,6.65
26.835711002349854,-4.67,-4.7,0.34,6.63
26.84565782546997,-4.71,-4.59,0.2,6.57
26.862250804901123,-4.75,-4.24,-0.05,6.36
26.866740942001343,-4.6,-3.7,-0.2,5.9
26.876224040985107,-4.54,-3.21,-0.38,5.57
26.88569402694702,-4.51,-2.81,-0.74,5.36
26.89551305770874,-4.44,-2.48,-1.06,5.19
26.911940097808838,-4.43,-2.14,-1.29,5.08
26.91684103012085,-4.57,-1.83,-1.42,5.12
26.92622709274292,-4.67,-1.66,-1.35,5.13
26.935708045959473,-4.5,-1.56,-1.12,4.89
26.9457368850708,-4.07,-1.4,-0.93,4.4
26.961790084838867,-3.73,-1.02,-0.72,3.93
26.966728925704956,-3.68,-0.62,-0.66,3.78
26.97622776031494,-3.9,-0.46,-0.75,3.99
26.985623836517334,-3.85,-0.53,-0.8,3.96
26.99562096595764,-3.51,-0.63,-0.67,3.62
27.01235294342041,-3.02,-0.63,-0.36,3.1
27.016896963119507,-2.66,-0.37,-0.08,2.68
27.026227951049805,-2.45,0.09,0.12,2.45
27.035857915878296,-2.38,0.76,0.13,2.5
27.045650959014893,-2.16,1.41,-0.04,2.57
27.062829971313477,-1.98,1.77,-0.37,2.68
27.067323923110962,-1.9,1.84,-0.7,2.73
27.076206922531128,-1.9,1.95,-1.05,2.91
27.085834980010986,-2.03,2.2,-1.08,3.18
27.095716953277588,-1.72,2.43,-0.93,3.11
27.112233877182007,-1.34,2.66,-0.63,3.04
27.117503881454468,-1.14,2.89,-0.28,3.11
27.126290798187256,-0.99,3.01,0.06,3.16
27.135679960250854,-0.77,3.0,0.34,3.11
27.145793914794922,-0.62,3.01,0.43,3.1
27.16209387779236,-0.36,2.9,0.62,2.98
27.167362928390503,-0.14,2.73,0.93,2.88
27.176270961761475,0.12,2.73,1.05,2.92
27.185739040374756,0.65,2.82,1.15,3.11
27.19576406478882,1.22,2.91,1.2,3.37
27.211896896362305,1.68,2.93,1.1,3.55
27.21732997894287,2.09,2.86,0.89,3.65
27.226428985595703,2.46,2.83,0.64,3.8
27.235920906066895,2.97,2.95,0.61,4.23
27.245868921279907,3.45,3.11,0.54,4.67
27.261964797973633,3.95,3.3,0.37,5.16
27.267333030700684,4.51,3.41,0.62,5.68
27.276397943496704,4.55,3.65,0.48,5.85
27.285711765289307,4.6,4.25,0.31,6.27
27.295768976211548,4.92,4.87,0.29,6.92
27.311925888061523,4.9,5.47,0.19,7.34
27.317408084869385,4.77,5.85,0.37,7.55
27.32631778717041,4.98,6.32,0.66,8.07
27.335757970809937,5.16,6.86,0.93,8.63
27.34588098526001,4.87,7.39,0.98,8.9
27.362168788909912,4.29,7.79,1.02,8.95
27.367270946502686,4.55,7.42,0.75,8.73
27.376317024230957,4.33,6.71,0.86,8.03
27.385655879974365,3.8,6.23,1.38,7.42
27.395803928375244,3.08,5.93,2.03,6.98
27.411634922027588,2.64,5.53,2.54,6.63
27.41735076904297,2.83,5.11,2.86,6.5
27.426305770874023,3.14,4.86,2.81,6.43
27.435938835144043,3.23,4.71,2.16,6.1
27.44581174850464,3.03,4.78,0.95,5.73
27.462356090545654,2.74,4.82,0.44,5.56
27.467339992523193,2.18,4.55,0.58,5.07
27.47647476196289,1.63,4.51,0.09,4.79
27.485769748687744,1.52,4.48,-0.28,4.73
27.49593687057495,1.23,4.42,-0.33,4.59
27.511693954467773,0.68,4.36,-0.32,4.42
27.517498016357422,0.29,4.45,-0.04,4.45
27.52652096748352,-0.23,4.63,0.45,4.65
27.5358989238739,-0.67,4.66,0.86,4.78
27.545889854431152,-1.21,4.47,1.07,4.75
27.561645984649658,-1.63,4.24,1.14,4.68
27.567094802856445,-2.1,4.05,1.14,4.7
27.57645606994629,-2.82,3.77,0.93,4.79
27.58586287498474,-3.37,3.66,0.76,5.03
27.59585189819336,-3.64,3.65,0.57,5.18
27.611650943756104,-4.1,3.43,0.2,5.34
27.617484092712402,-4.4,2.83,-0.21,5.23
27.626365900039673,-4.37,2.12,-0.48,4.88
27.635779857635498,-4.32,1.53,-0.51,4.61
27.64573907852173,-4.3,1.05,-0.46,4.45
27.66148591041565,-4.45,0.49,-0.33,4.48
27.667375087738037,-4.93,-0.05,-0.27,4.93
27.67647695541382,-5.12,-0.53,-0.22,5.15
27.6858549118042,-5.25,-0.99,-0.15,5.34
27.695976972579956,-5.51,-1.61,-0.13,5.74
27.712125778198242,-5.65,-2.35,-0.2,6.12
27.71744680404663,-5.54,-3.11,-0.18,6.35
27.726555824279785,-5.35,-3.76,-0.14,6.54
27.73604679107666,-5.37,-4.25,-0.03,6.84
27.745998859405518,-5.44,-4.41,-0.04,7.0
27.761550903320312,-5.6,-4.54,-0.19,7.21
27.76749277114868,-5.89,-4.81,-0.32,7.61
27.776544094085693,-6.14,-5.16,-0.44,8.03
27.7857608795166,-6.3,-5.63,-0.55,8.46
27.795886039733887,-6.13,-5.98,-0.75,8.59
27.811457872390747,-5.58,-6.18,-0.91,8.37
27.817508935928345,-5.0,-6.26,-0.99,8.07
27.826567888259888,-4.66,-6.38,-1.15,7.98
27.835867881774902,-4.34,-6.57,-1.29,7.97
27.8459689617157,-4.16,-6.67,-1.26,7.96
27.86138391494751,-4.2,-6.7,-1.09,7.98
27.86725902557373,-4.04,-6.7,-0.95,7.88
27.87667989730835,-3.8,-6.58,-0.76,7.63
27.886094093322754,-3.81,-6.23,-0.54,7.32
27.896054983139038,-3.94,-5.83,-0.34,7.04
27.91148805618286,-3.9,-5.45,-0.37,6.71
27.917617797851562,-3.84,-5.12,-0.49,6.41
27.926642894744873,-3.8,-4.77,-0.59,6.12
27.936098098754883,-3.89,-4.17,-0.75,5.75
27.946046829223633,-4.16,-3.53,-0.8,5.51
27.96142888069153,-4.54,-3.11,-0.65,5.54
27.96754789352417,-4.73,-2.81,-0.32,5.51
27.976645946502686,-4.7,-2.5,0.15,5.32
27.9860520362854,-4.65,-2.2,0.61,5.18
27.996129035949707,-4.81,-1.83,0.96,5.23
28.011373043060303,-5.1,-1.38,1.17,5.41
28.017796993255615,-5.36,-0.96,1.39,5.61
28.026690006256104,-5.38,-0.7,1.54,5.63
28.036169052124023,-5.02,-0.53,1.48,5.26
28.046082973480225,-4.54,-0.2,1.26,4.71
28.061498880386353,-4.05,0.33,0.96,4.17
28.067604064941406,-3.91,1.05,0.56,4.08
28.07674789428711,-3.79,1.95,-0.01,4.26
28.08619785308838,-3.63,2.71,-0.61,4.57
28.096093893051147,-3.52,3.35,-0.99,4.95
28.1112699508667,-3.41,3.69,-1.31,5.19
28.117647886276245,-3.09,3.69,-1.71,5.1
28.1267569065094,-2.61,3.74,-1.9,4.94
28.136220932006836,-2.05,3.99,-1.74,4.81
28.146207809448242,-1.58,4.26,-1.38,4.74
28.161314010620117,-1.23,4.42,-1.04,4.7
28.167635917663574,-1.11,4.63,-0.9,4.84
28.176780939102173,-0.83,5.02,-0.85,5.15
28.18632698059082,-0.43,5.14,-0.58,5.19
28.196181774139404,-0.38,4.84,-0.22,4.85
28.211331844329834,-0.3,5.52,-0.71,5.57
28.217795848846436,-0.59,7.55,2.35,7.92
28.226757049560547,-0.37,6.81,3.0,7.45
28.236268997192383,2.82,5.54,2.32,6.63
28.2463059425354,4.44,4.17,2.26,6.49
28.26121497154236,4.26,3.49,1.11,5.61
28.267664909362793,3.25,3.24,0.81,4.66
28.276890754699707,2.36,3.12,0.32,3.92
28.2862868309021,2.04,2.91,-0.29,3.56
28.296252965927124,2.56,2.8,0.07,3.79
28.31124782562256,3.06,2.77,0.36,4.14
28.317853927612305,3.1,2.74,0.48,4.16
28.326889038085938,3.19,2.98,0.76,4.43
28.336267948150635,3.37,3.24,1.16,4.81
28.34620189666748,3.63,3.46,1.31,5.18
28.361125946044922,3.95,3.86,1.5,5.72
28.367947101593018,4.18,4.73,1.67,6.52
28.376937866210938,4.17,5.58,1.8,7.19
28.386132955551147,4.02,6.01,1.53,7.39
28.39634084701538,4.05,6.03,1.24,7.36
28.41095781326294,4.21,6.15,1.14,7.53
28.418025016784668,4.61,6.36,1.01,7.91
28.426908016204834,4.78,6.32,0.76,7.96
28.436421871185303,4.82,6.36,0.55,7.99
28.446259021759033,4.6,6.53,0.45,8.0
28.461259841918945,4.14,6.65,0.31,7.83
28.467709064483643,4.16,6.56,0.13,7.76
28.47689390182495,4.07,5.93,0.61,7.21
28.48631000518799,3.01,5.12,1.31,6.08
28.49630308151245,2.2,4.56,1.93,5.41
28.510913848876953,2.43,4.2,2.37,5.4
28.518052101135254,2.93,3.99,2.45,5.52
28.526895999908447,2.62,3.85,2.07,5.09
28.536355018615723,1.24,3.69,1.76,4.27
28.54624080657959,-0.27,3.44,1.71,3.85
28.56068181991577,-0.84,3.24,1.78,3.79
28.567866802215576,-0.1,3.33,1.51,3.65
28.577008962631226,0.57,3.39,1.14,3.62
28.586282968521118,0.3,3.13,0.32,3.16
28.59633493423462,-0.3,2.82,-0.4,2.86
28.610740900039673,-0.72,2.62,-0.61,2.78
28.618053913116455,-1.3,2.45,-0.56,2.82
28.62702178955078,-1.78,2.5,-0.24,3.07
28.63633894920349,-1.95,2.71,0.19,3.34
28.646313905715942,-2.12,2.81,0.66,3.58
28.660611867904663,-2.74,2.81,0.89,4.02
28.66796875,-3.29,2.35,0.83,4.12
28.67696475982666,-3.56,1.64,0.71,3.98
28.68637180328369,-3.71,1.13,0.58,3.92
28.696372985839844,-3.86,0.91,0.51,3.99
28.710637092590332,-3.98,0.95,0.61,4.13
28.71815299987793,-4.27,0.81,0.36,4.36
28.726952075958252,-4.42,0.53,-0.01,4.45
28.736326932907104,-4.64,-0.01,-0.4,4.65
28.746304035186768,-4.44,-0.77,-0.71,4.56
28.760375022888184,-4.09,-1.37,-0.85,4.39
28.768043994903564,-4.19,-1.79,-0.82,4.62
28.777090072631836,-4.23,-1.91,-0.67,4.68
28.786378860473633,-4.18,-1.91,-0.4,4.61
28.79646587371826,-4.37,-2.05,-0.23,4.83
28.811133861541748,-4.67,-2.45,-0.24,5.27
28.818052768707275,-4.77,-2.88,-0.35,5.58
28.827023029327393,-4.53,-3.21,-0.48,5.57
28.836529970169067,-4.46,-3.51,-0.46,5.69
28.846473932266235,-4.27,-3.71,-0.56,5.68
28.861212968826294,-4.25,-3.82,-0.74,5.76
28.86803388595581,-4.44,-3.78,-0.82,5.88
28.877144813537598,-4.67,-3.81,-0.83,6.08
28.886594772338867,-5.03,-4.01,-0.87,6.49
28.896562099456787,-5.31,-4.29,-0.88,6.88
28.910979747772217,-5.35,-4.64,-0.82,7.12
28.918161869049072,-5.21,-4.94,-0.7,7.21
28.927130937576294,-5.06,-5.18,-0.52,7.25
28.93653893470764,-4.78,-5.49,-0.42,7.29
28.94651699066162,-4.47,-5.72,-0.08,7.25
28.96095895767212,-4.36,-5.74,0.14,7.2
28.96801996231079,-4.44,-5.71,0.26,7.23
28.977128982543945,-4.7,-5.66,0.15,7.35
28.986523866653442,-4.76,-5.57,-0.06,7.32
28.99663496017456,-4.78,-5.4,-0.12,7.21
29.010894775390625,-4.66,-5.08,-0.24,6.89
29.01820182800293,-4.23,-4.71,-0.61,6.35
29.02713894844055,-3.84,-4.43,-1.06,5.95
29.03649592399597,-3.85,-3.93,-1.39,5.67
29.046551942825317,-4.03,-3.25,-1.65,5.43
29.06074595451355,-4.42,-2.52,-1.52,5.31
29.068089962005615,-4.61,-1.77,-1.25,5.09
29.07719588279724,-4.47,-1.22,-0.94,4.72
29.08685874938965,-3.95,-0.9,-0.52,4.08
29.096671104431152,-3.56,-0.67,-0.07,3.62
29.11118507385254,-3.48,-0.42,0.43,3.53
29.118210792541504,-3.62,-0.02,1.06,3.77
29.12722897529602,-3.71,0.83,1.37,4.04
29.136636972427368,-3.58,2.01,1.48,4.36
29.146631956100464,-4.08,3.03,1.28,5.24
29.160878896713257,-4.09,3.43,0.49,5.36
29.168184757232666,-3.51,3.18,-0.23,4.74
29.177183866500854,-2.85,2.87,-0.6,4.08
29.18673586845398,-1.76,3.04,-0.68,3.57
29.196670055389404,-1.06,3.57,-0.49,3.75
29.210879802703857,-1.0,4.02,-0.39,4.16
29.218360900878906,-0.88,4.23,-0.62,4.36
29.22725486755371,-0.83,4.03,-0.9,4.21
29.236621856689453,-0.45,3.75,-1.33,4.0
29.24672508239746,0.25,3.5,-1.66,3.88
29.26067090034485,0.92,3.25,-1.83,3.84
29.268252849578857,1.23,3.1,-1.82,3.79
29.277286052703857,0.87,3.01,-1.55,3.49
29.286637783050537,0.23,3.14,-1.03,3.31
29.29684090614319,-0.04,3.23,-0.45,3.26
29.310454845428467,0.22,3.14,0.01,3.14
29.318370819091797,0.95,2.97,0.54,3.16
29.327242851257324,1.89,3.05,1.01,3.72
29.33670687675476,2.66,3.23,1.19,4.35
29.346752882003784,2.79,3.18,1.5,4.48
29.360776901245117,3.11,3.01,1.58,4.6
29.368364810943604,3.59,2.95,1.93,5.03
29.377277851104736,3.9,3.02,2.5,5.52
29.386778831481934,4.11,3.29,2.87,5.99
29.396789073944092,4.24,3.57,3.16,6.38
29.410880088806152,3.92,3.93,3.62,6.62
29.418335914611816,3.63,4.4,3.67,6.78
29.427316904067993,3.42,4.85,3.21,6.74
29.436680793762207,3.37,5.18,2.71,6.74
29.44690179824829,4.01,5.39,2.14,7.05
29.46102285385132,4.66,5.54,1.61,7.41
29.468313932418823,5.01,5.65,1.35,7.67
29.477304935455322,4.85,5.75,1.25,7.62
29.486773014068604,4.36,5.87,1.11,7.39
29.496819019317627,3.91,5.76,1.07,7.04
29.510687828063965,3.66,5.45,1.13,6.66
29.518449783325195,3.41,5.29,1.28,6.42
29.52731990814209,3.1,5.27,1.54,6.3
29.53676176071167,2.73,5.2,1.8,6.14
29.547017097473145,2.37,5.03,1.93,5.88
29.56056308746338,2.09,4.93,1.74,5.63
29.568296909332275,2.15,5.1,1.42,5.71
29.577423095703125,2.19,4.6,0.94,5.18
29.586853981018066,1.98,3.82,0.56,4.33
29.596828937530518,1.91,3.43,0.31,3.93
29.610331058502197,1.64,3.27,0.2,3.66
29.618425846099854,0.95,2.91,0.11,3.06
29.627429008483887,0.36,2.49,0.21,2.52
29.63676881790161,0.0,2.2,0.52,2.26
29.646827936172485,-0.62,1.99,0.48,2.13
29.660439014434814,-1.1,1.84,0.51,2.2
29.668406009674072,-1.07,1.79,0.5,2.14
29.677414894104004,-0.78,1.81,0.4,2.01
29.686803817749023,-0.92,1.87,0.37,2.11
29.696898937225342,-1.54,1.75,0.41,2.36
29.710628032684326,-2.44,1.43,0.31,2.84
29.718544006347656,-3.23,1.37,0.39,3.53
29.727401971817017,-3.68,1.52,0.55,4.01
29.73682689666748,-4.04,1.49,0.7,4.36
29.74691891670227,-4.03,1.22,0.84,4.29
29.76053476333618,-4.05,0.78,0.88,4.21
29.768465995788574,-4.17,0.29,0.51,4.21
29.77761197090149,-3.99,-0.04,0.09,3.99
29.787118911743164,-3.83,-0.18,-0.29,3.84
29.796954870224,-3.92,-0.3,-0.55,3.96
29.81037998199463,-4.1,-0.51,-0.42,4.15
29.818499088287354,-4.36,-0.79,-0.25,4.43
29.827529907226562,-4.79,-1.11,-0.24,4.92
29.83694076538086,-4.69,-1.18,-0.22,4.84
29.846974849700928,-4.23,-1.21,-0.36,4.41
29.860469818115234,-4.15,-1.61,-0.42,4.47
29.86845302581787,-4.1,-2.07,-0.6,4.63
29.87758994102478,-3.85,-2.46,-0.75,4.62
29.88693594932556,-3.85,-2.86,-0.71,4.84
29.89700984954834,-4.03,-3.23,-0.58,5.19
29.91038489341736,-4.01,-3.49,-0.52,5.34
29.918396949768066,-3.69,-3.63,-0.34,5.18
29.927620887756348,-3.71,-3.86,-0.22,5.35
29.936898946762085,-3.94,-4.1,-0.34,5.69
29.946959018707275,-4.08,-4.35,-0.48,5.98
29.960483074188232,-4.25,-4.77,-0.59,6.41
29.968425750732422,-4.37,-5.14,-0.75,6.78
29.977625846862793,-4.03,-5.41,-0.78,6.79
29.987030029296875,-3.71,-5.75,-0.56,6.86
29.997045040130615,-3.77,-6.07,-0.28,7.15
30.010141849517822,-3.63,-6.2,-0.12,7.18
30.018476963043213,-3.35,-6.3,-0.21,7.13
30.02763795852661,-3.26,-6.43,-0.33,7.21
30.03702688217163,-3.57,-6.36,-0.45,7.3
30.04698395729065,-3.87,-6.13,-0.43,7.26
30.06026291847229,-4.01,-5.92,-0.4,7.16
30.068408012390137,-3.91,-5.52,-0.51,6.78
30.077666759490967,-3.55,-5.02,-0.58,6.17
30.087002754211426,-3.3,-4.55,-0.7,5.66
30.097081899642944,-3.43,-3.9,-0.87,5.26
30.110583782196045,-3.49,-3.04,-1.02,4.73
30.11849093437195,-3.45,-2.29,-1.22,4.31
30.127649784088135,-3.51,-1.53,-1.49,4.1
30.136980056762695,-3.61,-0.7,-1.77,4.08
30.14711904525757,-3.69,0.08,-1.88,4.14
30.160297870635986,-3.74,0.83,-1.89,4.27
30.168502807617188,-3.67,1.55,-1.7,4.33
30.177758932113647,-3.51,2.12,-1.22,4.27
30.187119960784912,-3.26,2.58,-0.59,4.19
30.19705891609192,-3.06,2.99,0.06,4.27
30.210145950317383,-3.1,3.46,0.68,4.69
30.21846890449524,-2.98,3.98,0.96,5.06
30.22770881652832,-2.73,4.09,0.83,4.98
30.236955881118774,-2.43,4.32,0.5,4.98
30.247058868408203,-2.15,4.56,-0.04,5.04
30.260172843933105,-1.91,4.63,-0.53,5.03
30.26850390434265,-1.68,4.27,-0.86,4.66
30.27773094177246,-1.07,3.9,-1.18,4.21
