time,ax,ay,az,atotal
0.004133939743041992,-0.84,0.31,0.0,0.89
0.014400959014892578,-1.08,0.57,0.23,1.24
0.026432037353515625,-0.52,0.58,0.47,0.9
0.0358889102935791,0.18,0.72,0.88,1.15
0.045001983642578125,0.64,0.87,1.07,1.52
0.05443692207336426,0.93,0.98,1.53,2.04
0.06434893608093262,1.38,0.72,1.03,1.86
0.0769658088684082,1.59,0.31,0.13,1.62
0.08608293533325195,1.39,0.41,-0.1,1.45
0.0951089859008789,1.12,0.43,-0.43,1.27
0.1044759750366211,0.87,0.56,-0.38,1.1
0.11447906494140625,0.21,0.54,0.28,0.64
0.12666702270507812,-0.44,0.29,0.53,0.74
0.13610291481018066,-0.61,0.06,0.36,0.71
0.14510798454284668,-0.47,-0.06,-0.06,0.47
0.15453290939331055,0.3,0.3,-0.53,0.67
0.16447091102600098,1.62,1.08,-0.77,2.09
0.17686080932617188,1.98,1.46,-0.71,2.56
0.18592095375061035,1.72,1.62,-0.54,2.42
0.19519805908203125,1.75,1.65,-0.57,2.47
0.20449304580688477,1.59,1.91,-0.43,2.52
0.21451687812805176,1.49,2.49,-0.44,2.93
0.22654008865356445,1.81,3.32,-0.7,3.84
0.23599696159362793,1.98,4.16,-0.44,4.62
0.2452378273010254,1.68,4.36,0.04,4.67
0.2546420097351074,1.38,3.97,0.12,4.2
0.2645759582519531,0.91,3.4,0.15,3.52
0.2768850326538086,0.35,2.95,0.41,2.99
0.28630495071411133,-0.36,2.66,0.81,2.8
0.2953658103942871,-0.92,2.43,1.05,2.8
0.3045787811279297,-1.27,2.21,1.35,2.88
0.31465578079223633,-1.29,1.89,1.79,2.9
0.3268008232116699,-1.09,1.67,1.95,2.78
0.33631277084350586,-0.96,1.29,1.62,2.28
0.34522485733032227,-0.73,1.0,1.05,1.62
0.3546137809753418,-0.29,0.79,0.53,0.99
0.36452198028564453,0.23,0.41,0.29,0.55
0.37674689292907715,0.35,-0.62,-0.03,0.71
0.38607287406921387,0.54,-1.11,-0.22,1.25
0.3952779769897461,0.71,-1.27,-0.06,1.45
0.4045228958129883,0.72,-1.38,0.33,1.59
0.41445398330688477,0.72,-1.42,0.86,1.8
0.4266479015350342,0.72,-1.72,1.23,2.23
0.43595290184020996,0.58,-2.09,1.23,2.49
0.4453549385070801,0.39,-2.47,1.06,2.71
0.45472288131713867,0.21,-2.8,0.78,2.91
0.4645979404449463,0.07,-3.08,0.61,3.14
0.47681188583374023,0.02,-3.38,0.86,3.48
0.4859158992767334,0.15,-3.5,0.9,3.61
0.49533700942993164,0.35,-3.24,0.56,3.3
0.5046029090881348,0.82,-2.92,0.26,3.04
0.5146899223327637,1.1,-3.35,0.02,3.52
0.5272219181060791,1.25,-4.08,-0.18,4.27
0.5360140800476074,1.28,-4.8,-0.27,4.97
0.5454530715942383,1.54,-5.42,-0.45,5.65
0.5547428131103516,1.64,-6.28,-0.8,6.53
0.564673900604248,1.13,-7.42,-1.68,7.69
0.5767760276794434,-0.15,-8.16,-2.25,8.46
0.5858268737792969,-1.64,-8.23,-1.82,8.58
0.5953350067138672,-2.67,-8.55,-1.37,9.06
0.6047720909118652,-2.79,-9.6,-1.24,10.07
0.614783763885498,-2.47,-11.0,-1.05,11.32
0.6269159317016602,-1.55,-11.49,-1.03,11.63
0.636044979095459,-0.76,-11.98,-1.08,12.05
0.6453900337219238,-0.42,-12.43,-1.17,12.49
0.6548490524291992,0.11,-12.47,-1.24,12.53
0.6646959781646729,0.48,-12.21,-0.61,12.23
0.6768839359283447,0.53,-11.48,0.28,11.49
0.6858468055725098,0.12,-11.27,0.12,11.27
0.6953930854797363,-0.51,-10.24,-0.29,10.25
0.7047178745269775,-0.86,-8.91,-1.12,9.02
0.7147769927978516,-0.5,-8.2,-2.35,8.54
0.7268447875976562,0.05,-7.67,-3.5,8.43
0.7358050346374512,0.65,-7.49,-4.21,8.61
0.7455039024353027,1.11,-7.1,-3.84,8.14
0.7547719478607178,1.47,-5.9,-2.63,6.62
0.7646799087524414,2.13,-3.62,-1.31,4.39
0.7769460678100586,2.78,-0.5,0.43,2.85
0.7857449054718018,3.82,2.02,2.11,4.8
0.7953829765319824,4.65,3.84,4.09,7.28
0.8047938346862793,5.65,5.98,4.49,9.37
0.8148980140686035,6.51,9.12,3.02,11.6
0.8272438049316406,7.44,11.34,2.6,13.8
0.8359971046447754,8.06,12.08,3.5,14.93
0.8459959030151367,6.85,12.73,4.37,15.1
0.8553180694580078,4.58,13.55,4.18,14.9
0.8654439449310303,2.91,14.03,4.03,14.88
0.8773908615112305,2.53,14.58,3.83,15.28
0.885800838470459,3.41,15.32,3.17,16.01
0.8960180282592773,4.5,15.35,2.73,16.22
0.9053869247436523,4.13,14.94,2.89,15.76
0.9153218269348145,2.67,14.68,3.29,15.27
0.927365779876709,1.54,14.21,3.36,14.68
0.935783863067627,1.13,13.4,3.21,13.82
0.9459679126739502,1.53,12.65,3.15,13.12
0.9553627967834473,2.04,12.0,3.19,12.58
0.9652628898620605,2.24,11.28,3.31,11.96
0.9769120216369629,2.06,10.41,2.68,10.94
0.9858429431915283,1.62,9.6,2.05,9.94
0.9955120086669922,1.73,8.9,1.56,9.19
1.0048317909240723,1.81,8.51,0.49,8.71
1.01487398147583,1.8,8.02,-0.2,8.22
1.026817798614502,1.8,7.33,-0.34,7.55
1.035949945449829,1.91,6.54,-0.09,6.81
1.0455739498138428,2.61,5.91,0.35,6.47
1.0548288822174072,3.94,4.97,0.98,6.41
1.0648229122161865,4.9,4.16,2.07,6.75
1.0770759582519531,5.2,3.21,2.94,6.78
1.086000919342041,4.67,1.71,2.83,5.72
1.0957088470458984,3.71,-0.08,2.18,4.3
1.1051039695739746,2.76,-1.76,1.6,3.64
1.1150939464569092,2.23,-3.1,1.18,3.99
1.127161979675293,2.09,-4.37,0.97,4.94
1.1362829208374023,2.24,-5.53,0.86,6.02
1.14581298828125,2.36,-6.24,0.83,6.72
1.1550889015197754,2.23,-6.85,0.56,7.22
1.165024757385254,1.83,-7.45,0.28,7.67
1.177164077758789,1.46,-8.0,0.15,8.13
1.1860837936401367,1.38,-8.43,0.13,8.54
1.1955759525299072,1.52,-8.82,0.05,8.95
1.2049980163574219,1.75,-9.22,0.03,9.38
1.2152037620544434,2.01,-9.5,0.04,9.71
1.2270817756652832,2.04,-9.69,-0.11,9.9
1.2361118793487549,1.84,-9.85,-0.37,10.02
1.2457928657531738,1.58,-9.99,-0.54,10.12
1.255073070526123,1.63,-9.79,-0.55,9.93
1.265017032623291,1.92,-9.42,-0.53,9.62
1.2770869731903076,2.3,-9.33,-0.62,9.62
1.285991907119751,2.53,-9.08,-0.61,9.44
1.2956879138946533,2.7,-8.6,-0.43,9.02
1.3051137924194336,3.0,-8.34,-0.3,8.86
1.315077781677246,3.47,-7.89,-0.02,8.61
1.327049970626831,3.81,-7.57,0.1,8.47
1.3360490798950195,3.59,-7.57,0.01,8.37
1.3458218574523926,3.09,-7.26,0.03,7.89
1.355055809020996,2.73,-6.62,-0.01,7.16
1.3650588989257812,2.72,-6.16,-0.16,6.73
1.377166986465454,3.07,-5.7,-0.51,6.49
1.3861289024353027,3.53,-5.12,-0.81,6.27
1.395792007446289,3.85,-4.74,-0.99,6.18
1.4051599502563477,4.14,-4.46,-1.03,6.17
1.4151558876037598,4.25,-4.23,-1.05,6.08
1.4270849227905273,4.03,-3.84,-0.95,5.64
1.4363179206848145,3.69,-3.11,-0.54,4.85
1.4458260536193848,3.48,-2.41,-0.12,4.23
1.4552030563354492,3.42,-1.86,0.26,3.9
1.465116024017334,3.63,-1.18,0.62,3.86
1.4772329330444336,4.04,-0.27,0.95,4.15
1.486203908920288,4.45,0.54,0.93,4.57
1.4957518577575684,4.29,1.13,0.88,4.52
1.5051109790802002,4.26,2.03,0.55,4.75
1.5152168273925781,4.27,2.51,0.08,4.95
1.5273609161376953,3.85,2.93,0.64,4.88
1.5365538597106934,3.43,3.68,1.39,5.21
1.5459849834442139,2.8,4.15,1.5,5.22
1.5553019046783447,1.89,4.77,1.42,5.32
1.5653018951416016,1.11,5.69,1.12,5.9
1.5774719715118408,0.27,6.62,0.96,6.69
1.5863900184631348,-0.55,7.36,0.87,7.43
1.5958890914916992,-1.08,7.89,1.07,8.03
1.6052727699279785,-1.6,8.26,1.66,8.57
1.6176679134368896,-2.37,8.31,2.28,8.93
1.6274769306182861,-3.38,8.78,3.12,9.91
1.636549949645996,-4.19,9.71,3.97,11.29
1.6459479331970215,-4.72,10.37,4.51,12.25
1.65535306930542,-5.11,10.88,4.79,12.93
1.66524076461792,-5.53,11.26,4.9,13.46
1.67781400680542,-5.87,11.62,4.79,13.87
1.6865630149841309,-6.13,11.71,4.19,13.86
1.695943832397461,-6.35,11.33,3.3,13.4
1.705199956893921,-6.44,10.92,2.72,12.96
1.7152409553527832,-6.3,10.47,2.45,12.46
1.7271859645843506,-5.84,10.18,2.52,12.0
1.7362289428710938,-5.01,10.16,2.88,11.68
1.745938777923584,-4.11,10.03,3.21,11.3
1.7551689147949219,-3.52,9.46,3.5,10.68
1.76509690284729,-3.45,8.74,3.99,10.2
1.7772319316864014,-3.29,8.32,4.62,10.06
1.7862589359283447,-2.49,8.08,5.14,9.89
1.7958979606628418,-1.28,7.75,5.48,9.57
1.8052468299865723,-0.15,7.56,5.52,9.36
1.8177080154418945,0.86,7.55,5.19,9.2
1.8273999691009521,1.86,7.33,4.61,8.85
1.8365309238433838,2.68,6.95,4.05,8.47
1.8459510803222656,3.54,6.62,3.59,8.32
1.855231761932373,4.37,6.23,3.38,8.32
1.865135908126831,5.22,5.65,3.18,8.32
1.8772058486938477,6.41,4.59,2.13,8.16
1.886502981185913,7.38,3.68,1.38,8.36
1.8960509300231934,8.05,2.53,0.75,8.47
1.9052789211273193,8.06,0.93,0.12,8.11
1.9177827835083008,7.9,-0.65,-0.35,7.93
1.9274230003356934,7.65,-2.08,-0.7,7.95
1.9365429878234863,7.46,-3.44,-0.89,8.26
1.946084976196289,7.4,-4.67,-1.0,8.8
1.9554500579833984,7.55,-5.59,-0.96,9.44
1.9675579071044922,7.48,-6.34,-0.47,9.81
1.9775519371032715,7.21,-6.92,0.29,9.99
1.9864599704742432,7.6,-7.29,0.48,10.54
1.9961059093475342,8.01,-7.68,0.6,11.11
2.0053138732910156,8.27,-7.98,0.72,11.51
2.017638921737671,8.14,-8.5,0.65,11.78
2.0275418758392334,7.65,-8.88,0.43,11.72
2.036646842956543,7.19,-9.07,-0.05,11.57
2.0461277961730957,6.59,-9.1,0.01,11.23
2.0554099082946777,6.38,-9.17,0.19,11.17
2.0677828788757324,6.26,-9.07,-0.01,11.02
2.077544927597046,6.05,-9.04,-0.42,10.88
2.086570978164673,5.92,-8.93,-0.7,10.73
2.0961790084838867,5.94,-8.8,-0.87,10.65
2.105632781982422,5.93,-8.56,-1.02,10.46
2.1180598735809326,5.96,-8.18,-1.08,10.17
2.127532958984375,5.93,-7.86,-1.15,9.91
2.1368818283081055,5.74,-7.6,-1.26,9.6
2.146103858947754,5.41,-7.16,-1.31,9.06
2.155590057373047,5.13,-6.67,-1.27,8.5
2.1675829887390137,5.14,-6.2,-1.13,8.13
2.177623987197876,5.31,-5.71,-0.82,7.84
2.186609983444214,5.32,-5.33,-0.43,7.54
2.1960489749908447,5.32,-4.7,-0.03,7.09
2.205474853515625,5.45,-4.08,0.23,6.81
2.217960834503174,5.41,-3.88,0.19,6.66
2.22757887840271,5.13,-3.5,0.02,6.21
2.2369959354400635,4.84,-3.05,-0.02,5.72
2.246242046356201,4.53,-2.88,0.04,5.36
2.2556779384613037,3.95,-2.62,0.22,4.74
2.267943859100342,3.31,-2.01,0.41,3.89
2.2777249813079834,3.23,-1.15,0.42,3.45
2.286681890487671,3.61,-0.26,0.55,3.66
2.2962429523468018,4.17,0.54,0.83,4.28
2.305607795715332,4.91,1.56,0.81,5.21
2.318044900894165,5.11,2.29,0.46,5.61
2.3278019428253174,4.51,2.85,0.11,5.33
2.3367738723754883,3.55,3.73,-0.21,5.15
2.3464250564575195,2.85,4.5,-0.34,5.33
2.3557357788085938,2.54,4.97,-0.12,5.58
2.3679580688476562,2.57,5.57,0.65,6.16
2.3778319358825684,2.43,6.24,1.55,6.87
2.386746883392334,1.95,6.93,2.2,7.52
2.396282911300659,1.44,7.15,2.46,7.69
2.4056520462036133,0.84,6.96,2.25,7.36
2.4179887771606445,-0.06,6.8,1.96,7.07
2.427696943283081,-1.34,6.63,1.63,6.95
2.436717987060547,-2.77,6.43,1.22,7.1
2.44635009765625,-3.98,6.35,1.07,7.57
2.455749988555908,-4.58,6.41,1.26,7.97
2.4680228233337402,-4.84,6.56,1.7,8.32
2.47776198387146,-4.92,7.06,2.25,8.89
2.486814022064209,-4.92,7.53,2.61,9.36
2.496367931365967,-4.99,7.79,2.46,9.57
2.505737781524658,-5.6,8.02,2.15,10.01
2.5182859897613525,-6.49,8.43,2.14,10.85
2.5279359817504883,-6.98,8.97,2.42,11.62
2.5370230674743652,-6.9,9.21,2.82,11.84
2.5464468002319336,-6.65,9.36,3.27,11.93
2.555972099304199,-6.57,9.37,3.63,12.0
2.5683939456939697,-6.5,9.08,3.74,11.77
2.578268051147461,-6.16,8.87,3.82,11.45
2.587185859680176,-5.76,8.69,3.97,11.15
2.596592903137207,-5.32,8.33,4.0,10.66
2.605865955352783,-4.95,7.96,4.05,10.21
2.6185498237609863,-4.68,7.71,4.02,9.87
2.628192901611328,-4.12,7.64,3.73,9.44
2.6372718811035156,-3.17,7.78,3.28,9.01
2.6466808319091797,-2.26,7.74,2.71,8.5
2.655927896499634,-1.7,7.48,2.19,7.97
2.668376922607422,-1.37,7.3,1.96,7.68
2.6779398918151855,-0.75,7.38,2.15,7.72
2.686983108520508,0.35,7.47,2.62,7.92
2.6965198516845703,1.76,7.38,3.09,8.19
2.7057957649230957,3.19,7.25,3.79,8.78
2.7182130813598633,4.42,6.83,4.42,9.25
2.727811813354492,5.19,5.96,4.26,8.97
2.7369461059570312,5.44,4.96,3.61,8.19
2.7465248107910156,5.36,3.85,2.84,7.18
2.755971908569336,5.27,2.52,1.93,6.15
2.768289089202881,5.15,1.1,1.05,5.36
2.7781291007995605,5.01,-0.15,0.37,5.02
2.7870168685913086,5.27,-1.12,-0.05,5.38
2.7964658737182617,6.22,-1.77,-0.12,6.46
2.8057429790496826,7.21,-2.55,-0.12,7.64
2.8181281089782715,7.48,-3.81,-0.18,8.39
2.828104019165039,7.14,-5.09,-0.19,8.77
2.837006092071533,6.5,-6.04,-0.13,8.87
2.846560001373291,5.9,-6.56,-0.12,8.82
2.8558549880981445,5.54,-6.91,-0.24,8.85
2.868246078491211,5.55,-7.21,-0.27,9.1
2.8778748512268066,5.77,-7.42,-0.2,9.4
2.8870089054107666,6.13,-7.41,-0.04,9.61
2.896533966064453,6.46,-7.33,0.12,9.77
2.905850887298584,6.65,-7.2,0.23,9.8
2.9181039333343506,6.66,-7.07,0.14,9.71
2.927858829498291,6.52,-6.96,-0.03,9.53
2.9370009899139404,6.36,-6.99,-0.16,9.45
2.946898937225342,6.09,-7.16,-0.1,9.4
2.9560160636901855,5.83,-7.13,0.2,9.21
2.9681899547576904,5.69,-7.04,0.49,9.06
2.9778847694396973,5.69,-6.98,0.56,9.02
2.987168788909912,5.78,-6.77,0.52,8.91
2.9966859817504883,5.88,-6.56,0.3,8.81
3.005919933319092,5.83,-6.43,-0.03,8.67
3.0183489322662354,5.5,-6.34,-0.31,8.39
3.0281100273132324,5.09,-6.15,-0.51,7.99
3.0370919704437256,4.86,-5.72,-0.67,7.53
3.046720027923584,4.78,-5.23,-0.84,7.13
3.056065082550049,4.72,-4.76,-1.06,6.78
3.0683608055114746,4.68,-4.21,-1.21,6.41
3.0780930519104004,4.77,-3.57,-1.18,6.07
3.08711576461792,4.88,-3.05,-1.03,5.84
3.0966110229492188,4.83,-2.92,-0.98,5.72
3.1058268547058105,4.58,-3.02,-0.98,5.57
3.1180567741394043,4.03,-3.01,-0.9,5.1
3.1279730796813965,3.29,-2.84,-0.81,4.42
3.137324810028076,2.72,-2.63,-0.73,3.85
3.146728038787842,2.52,-2.29,-0.52,3.44
3.156071901321411,2.7,-1.68,-0.32,3.19
3.168266773223877,2.95,-1.15,-0.37,3.18
3.178238868713379,3.09,-0.62,-0.52,3.19
3.1871559619903564,3.04,-0.04,-0.6,3.09
3.196742057800293,2.91,0.43,-0.59,3.0
3.2060890197753906,2.88,0.88,-0.39,3.03
3.218226909637451,2.73,1.43,-0.05,3.08
3.228210926055908,2.47,1.93,0.14,3.13
3.2372517585754395,2.34,2.47,0.2,3.4
3.246792793273926,2.36,3.17,0.57,3.99
3.256248950958252,2.62,3.82,1.22,4.79
3.268402099609375,2.87,4.43,1.76,5.56
3.278411865234375,2.96,4.97,2.18,6.18
3.287451982498169,2.55,5.31,2.69,6.47
3.296905040740967,1.71,5.59,3.02,6.57
3.306130886077881,0.9,5.98,2.97,6.73
3.3184127807617188,0.38,6.09,2.68,6.66
3.3285698890686035,-0.29,5.95,2.37,6.41
3.337430000305176,-1.03,5.64,2.16,6.12
3.3468589782714844,-1.3,5.28,2.27,5.89
3.3562817573547363,-1.95,5.37,2.42,6.2
3.3680830001831055,-2.33,5.32,2.57,6.35
3.3781538009643555,-2.58,4.93,2.66,6.16
3.387173891067505,-2.75,4.92,2.63,6.21
3.3967928886413574,-2.38,5.43,2.51,6.43
3.406097888946533,-2.29,5.49,2.21,6.34
3.417886972427368,-2.34,5.12,1.89,5.93
3.428217887878418,-2.75,4.88,1.72,5.85
3.437227964401245,-3.43,4.7,1.45,5.99
3.446847915649414,-3.91,5.06,1.36,6.53
3.4562978744506836,-4.07,6.13,2.0,7.62
3.4680800437927246,-4.34,6.9,2.79,8.61
3.478353977203369,-4.98,7.12,3.43,9.34
3.487346887588501,-5.74,7.13,3.79,9.9
3.4967880249023438,-5.71,6.43,3.73,9.37
3.5062098503112793,-5.45,5.88,3.87,8.9
3.517972946166992,-5.25,5.61,4.14,8.72
3.5282697677612305,-5.27,5.68,4.33,8.87
3.5373001098632812,-5.23,6.12,4.57,9.25
3.5468549728393555,-4.94,6.6,4.69,9.48
3.5562689304351807,-4.39,6.75,4.37,9.16
3.567831039428711,-3.67,6.81,3.92,8.67
3.578320026397705,-3.09,7.08,3.61,8.52
3.587312936782837,-2.66,7.13,3.33,8.3
3.5968480110168457,-2.44,7.38,3.35,8.46
3.606252908706665,-2.18,7.87,3.6,8.92
3.6177830696105957,-1.6,7.81,3.55,8.72
3.6285200119018555,-0.65,7.65,3.33,8.36
3.637300968170166,0.31,7.46,3.3,8.16
3.6469497680664062,1.06,6.95,3.32,7.77
3.6563167572021484,1.59,6.42,3.45,7.45
3.6678338050842285,1.93,5.92,3.59,7.18
3.678271770477295,2.11,5.25,3.46,6.63
3.6873669624328613,2.44,4.65,3.23,6.16
3.6969380378723145,2.82,4.03,3.1,5.81
3.7062888145446777,3.02,3.12,2.93,5.23
3.717916965484619,3.19,2.23,2.85,4.82
3.7284488677978516,3.3,1.37,2.95,4.63
3.7374267578125,3.82,0.87,3.24,5.08
3.747349977493286,4.74,0.41,3.29,5.78
3.756351947784424,5.85,-0.24,2.8,6.48
3.7677488327026367,6.71,-1.02,2.1,7.1
3.778240919113159,7.08,-2.01,1.27,7.46
3.787476062774658,6.88,-3.04,0.29,7.52
3.7969679832458496,6.27,-3.78,-0.62,7.34
3.806276798248291,5.56,-4.16,-1.34,7.07
3.817842960357666,2.87,-6.75,-1.75,7.54
3.8284387588500977,-15.29,-7.03,-0.47,16.83
3.837455987930298,-1.38,-2.65,-1.72,3.44
3.8473849296569824,9.15,-8.25,-2.52,12.57
3.8563809394836426,10.26,0.35,-1.35,10.35
3.8678717613220215,6.15,-3.91,-1.31,7.4
3.878446102142334,3.19,-7.6,0.15,8.24
3.8875160217285156,1.12,-8.21,0.7,8.31
3.897432804107666,-0.07,-7.97,0.31,7.97
3.9063520431518555,0.36,-7.77,0.42,7.78
3.917757987976074,0.21,-7.82,-0.08,7.82
3.928344964981079,-0.1,-7.83,-0.79,7.87
3.937678813934326,0.03,-8.35,-1.98,8.58
3.9474589824676514,-0.26,-9.53,-3.22,10.06
3.956645965576172,0.52,-11.38,-6.08,12.91
3.9683279991149902,2.67,-12.56,-10.36,16.49
3.9785618782043457,3.48,-12.63,-11.87,17.67
3.9875497817993164,2.82,-12.82,-9.62,16.27
3.9975929260253906,1.63,-13.36,-4.0,14.04
4.006403923034668,1.87,-13.06,-0.53,13.2
4.017881870269775,2.79,-9.71,3.61,10.72
4.02842903137207,3.89,-4.18,14.89,15.94
4.037613868713379,5.69,1.11,23.85,24.54
4.047592878341675,8.54,-0.17,18.83,20.67
4.056416034698486,6.51,-2.66,7.78,10.48
4.067887783050537,1.54,-2.98,2.17,3.99
4.078680992126465,0.12,-3.3,2.16,3.94
4.087584972381592,1.33,-4.23,2.56,5.12
4.097436904907227,2.25,-4.76,3.75,6.46
4.106310844421387,3.83,-5.02,5.08,8.1
4.1178319454193115,5.42,-5.5,5.98,9.76
4.128408908843994,5.88,-6.16,5.41,10.08
4.137584924697876,5.52,-6.53,2.95,9.04
4.150056838989258,4.56,-6.21,0.1,7.7
4.156554937362671,3.13,-5.18,-2.19,6.43
4.16854190826416,2.87,-5.14,-3.64,6.92
4.178712844848633,2.9,-5.33,-4.57,7.59
4.187652111053467,2.31,-4.94,-4.47,7.05
4.197671890258789,1.97,-4.97,-4.0,6.67
4.206532955169678,1.97,-5.26,-3.55,6.64
4.217752933502197,1.92,-5.26,-3.41,6.55
4.228631019592285,2.04,-4.94,-3.4,6.33
4.23781681060791,2.38,-4.47,-3.58,6.2
4.247779846191406,2.51,-3.58,-4.06,5.96
4.256608963012695,2.58,-2.22,-4.66,5.77
4.267809867858887,2.44,-0.2,-5.92,6.4
4.278608798980713,1.88,1.34,-7.5,7.84
4.287787914276123,2.46,0.6,-6.81,7.26
4.297610759735107,3.07,0.38,-5.15,6.0
4.306518077850342,2.94,0.24,-3.11,4.28
4.317564010620117,2.93,0.04,-1.1,3.12
4.3286309242248535,2.16,0.76,0.38,2.32
4.337725877761841,0.84,1.83,1.59,2.56
4.347659111022949,0.41,2.66,3.17,4.15
4.3565449714660645,0.15,3.34,5.03,6.03
4.367738962173462,-0.46,3.59,7.3,8.14
4.378584861755371,-1.74,4.53,9.2,10.4
4.387685775756836,-4.43,8.6,10.03,13.93
4.398295879364014,-7.32,13.15,11.12,18.71
4.407045841217041,-8.51,15.13,12.59,21.44
4.417628765106201,-7.93,14.22,13.98,21.46
4.42928409576416,-6.28,10.94,15.17,19.72
4.437839984893799,-5.13,7.94,15.41,18.07
4.4482197761535645,-5.12,6.72,14.71,16.96
4.458651065826416,-5.83,6.11,13.87,16.23
4.467580795288086,-6.31,4.91,12.62,14.93
4.478657960891724,-6.0,4.08,10.53,12.78
4.487756967544556,-5.04,3.42,8.22,10.23
4.497767925262451,-3.92,2.48,5.94,7.53
4.508196830749512,-3.51,2.35,3.77,5.66
4.517507076263428,-3.09,2.34,1.69,4.22
4.52871298789978,-2.59,2.31,-0.9,3.58
4.537784099578857,-2.21,2.05,-2.32,3.8
4.547853946685791,-2.08,2.01,-2.79,4.01
4.556752920150757,-2.2,1.68,-2.98,4.06
4.567584037780762,-2.31,1.21,-2.85,3.86
4.578778982162476,-2.45,1.34,-3.29,4.31
4.587944984436035,-2.7,1.62,-3.35,4.59
4.600553035736084,-3.09,1.83,-2.53,4.39
4.608184814453125,-3.46,1.95,-0.87,4.06
4.617891788482666,-3.6,2.48,1.46,4.6
4.628853797912598,-3.55,2.88,3.44,5.72
4.638125896453857,-3.33,2.11,4.2,5.76
4.647841930389404,-3.01,0.9,4.08,5.14
4.6581268310546875,-2.21,0.45,3.67,4.3
4.667413949966431,-1.08,-0.08,3.5,3.66
4.678927898406982,-0.16,-0.3,3.79,3.8
4.687736988067627,0.28,-0.14,3.73,3.74
4.700764894485474,0.33,-0.49,3.49,3.53
4.7080559730529785,0.39,-1.46,3.32,3.64
4.717708110809326,0.93,-2.29,2.57,3.56
4.728806018829346,1.44,-2.98,1.37,3.58
4.737865924835205,1.86,-3.52,0.03,3.98
4.748007774353027,2.34,-3.93,-0.09,4.57
4.756900787353516,3.01,-4.29,-0.54,5.26
4.767457008361816,3.78,-4.39,-1.36,5.95
4.778846979141235,2.94,-4.08,-2.36,5.55
4.788000106811523,-0.8,-2.04,-1.35,2.57
4.7980029582977295,-0.71,-0.6,-0.23,0.95
4.806848049163818,1.3,-1.59,-0.01,2.05
4.817310810089111,1.23,-2.45,0.53,2.79
4.82890510559082,1.82,-3.85,1.43,4.49
4.838023900985718,3.52,-4.92,0.84,6.1
4.847975969314575,4.93,-5.46,0.51,7.37
4.856916904449463,4.21,-5.05,4.99,8.25
4.867719888687134,5.97,-4.15,5.42,9.06
4.879163980484009,7.6,-4.68,4.19,9.85
4.888164043426514,7.93,-5.29,1.62,9.66
4.897983074188232,6.74,-4.89,-0.95,8.38
4.90693998336792,3.73,-3.24,-2.03,5.34
4.917712926864624,3.76,-2.06,-3.02,5.24
4.92926287651062,7.02,-2.49,-4.31,8.6
4.938047885894775,7.86,-2.62,-2.78,8.73
4.947940826416016,7.93,-3.81,-0.88,8.84
4.957014083862305,7.9,-5.65,-0.61,9.73
4.967618942260742,7.36,-6.48,-1.77,9.96
4.980612754821777,5.65,-6.75,-3.34,9.41
4.988105773925781,3.66,-6.91,-3.78,8.68
4.998106002807617,2.7,-6.9,-3.47,8.18
5.006940841674805,2.4,-7.05,-3.93,8.42
5.0173399448394775,2.52,-6.86,-3.65,8.16
5.029048919677734,3.74,-5.8,-2.48,7.33
5.038096904754639,5.14,-5.1,-2.13,7.54
5.048005104064941,6.28,-4.82,-2.94,8.44
5.056950092315674,6.88,-4.83,-3.53,9.11
5.067306995391846,5.88,-4.47,-3.96,8.38
5.079133033752441,4.02,-4.45,-4.59,7.55
5.088006019592285,2.88,-4.1,-4.14,6.49
5.097963809967041,3.27,-3.55,-2.82,5.58
5.106990814208984,4.69,-2.92,-1.59,5.74
5.117255926132202,5.72,-2.46,-1.35,6.37
5.129195928573608,5.29,-2.73,-1.95,6.26
5.138107776641846,4.05,-2.69,-2.59,5.5
5.148059844970703,3.15,-3.05,-3.46,5.58
5.1571550369262695,3.13,-2.57,-2.93,4.99
5.16725492477417,3.0,-2.02,-1.07,3.77
5.179258823394775,3.33,-2.34,1.28,4.26
5.188108921051025,3.26,-2.17,3.45,5.21
5.1980791091918945,3.69,-1.12,4.5,5.92
5.207072973251343,3.98,-0.57,3.55,5.36
5.217176914215088,2.9,-0.05,1.63,3.32
5.22967791557312,1.38,0.35,-0.47,1.49
5.238159894943237,0.73,0.3,-1.99,2.14
5.24801778793335,1.13,0.77,-1.93,2.36
5.257140874862671,1.86,1.83,-0.95,2.77
5.267399787902832,2.61,2.1,0.1,3.35
5.2797417640686035,3.08,2.69,1.39,4.31
5.288262844085693,3.17,3.54,2.14,5.21
5.298248767852783,3.05,4.21,2.25,5.66
5.307178020477295,2.97,5.03,2.7,6.43
5.317162990570068,2.78,5.9,2.94,7.15
5.329077959060669,2.78,6.29,2.89,7.45
5.338174819946289,2.47,6.58,3.6,7.89
5.347960948944092,1.51,6.87,4.76,8.49
5.35710597038269,-0.02,6.87,5.36,8.71
5.366998910903931,-1.28,6.89,5.81,9.1
5.379122972488403,-2.05,7.18,6.4,9.83
5.388140916824341,-2.66,7.97,6.98,10.92
5.397953033447266,-3.1,8.56,7.13,11.56
5.407098770141602,-3.72,8.91,7.16,12.02
5.417216777801514,-4.36,9.48,7.02,12.57
5.429605007171631,-4.97,10.03,6.61,12.99
5.438385963439941,-5.08,10.59,6.13,13.24
5.4479780197143555,-4.61,11.36,5.83,13.57
5.457258939743042,-4.26,11.66,5.74,13.67
5.467036962509155,-4.16,11.73,6.1,13.86
5.479598045349121,-4.32,11.52,6.35,13.84
5.488302946090698,-4.44,11.06,6.12,13.39
5.498067855834961,-4.36,10.67,5.71,12.86
5.50728178024292,-3.69,10.22,5.29,12.08
5.5172059535980225,-2.87,9.64,5.0,11.23
5.5296759605407715,-2.5,9.08,4.96,10.64
5.538366794586182,-2.06,8.41,4.83,9.91
5.548030853271484,-1.71,7.54,4.09,8.74
5.557378768920898,-1.45,6.82,3.24,7.68
5.5671210289001465,-0.85,6.25,2.85,6.92
5.579608917236328,0.13,5.67,2.73,6.29
5.588162899017334,0.38,4.53,2.67,5.27
5.5979790687561035,-0.25,3.75,2.9,4.74
5.60715389251709,0.31,3.43,3.1,4.63
5.617227077484131,1.41,2.97,3.05,4.48
5.629465103149414,2.67,3.18,2.8,5.0
5.638444900512695,4.04,2.84,2.46,5.51
5.648022890090942,4.56,2.15,2.72,5.72
5.6573638916015625,5.16,1.49,3.42,6.36
5.667222023010254,5.48,0.07,3.38,6.43
5.679694890975952,4.64,-1.14,2.49,5.38
5.688330888748169,3.63,-2.04,1.65,4.47
5.697882890701294,3.82,-3.04,0.93,4.96
5.707266807556152,4.97,-3.42,0.48,6.05
5.717314958572388,5.66,-4.03,-0.29,6.95
5.729674816131592,5.43,-4.9,-1.17,7.4
5.738463878631592,5.37,-5.16,-1.62,7.62
5.7478928565979,5.35,-5.8,-1.56,8.04
5.757389068603516,5.47,-6.61,-1.34,8.68
5.767282962799072,6.02,-7.04,-1.07,9.32
5.779748916625977,6.46,-7.18,-0.77,9.68
5.78839898109436,6.8,-7.18,-0.52,9.9
5.79807710647583,6.5,-7.85,-0.28,10.19
5.807333946228027,5.5,-8.19,0.29,9.86
5.817368030548096,5.16,-8.2,0.81,9.72
5.829813003540039,5.23,-8.3,0.84,9.84
5.838523864746094,5.39,-8.15,0.62,9.79
5.848067760467529,5.37,-7.69,0.27,9.38
5.857506990432739,5.04,-7.55,-0.24,9.08
5.867260932922363,4.67,-7.57,-0.69,8.92
5.879887104034424,4.39,-7.41,-0.97,8.66
5.888425827026367,4.21,-7.27,-1.17,8.48
5.898049831390381,4.11,-7.12,-1.24,8.31
5.907433986663818,3.95,-6.82,-1.11,7.95
5.917320966720581,3.72,-6.71,-1.0,7.73
5.92984676361084,3.29,-6.72,-0.93,7.53
5.938478946685791,3.1,-6.5,-1.11,7.28
5.9479570388793945,3.18,-6.21,-1.34,7.1
5.957582950592041,3.03,-6.0,-1.22,6.83
5.967466831207275,2.8,-5.61,-1.09,6.36
5.9799370765686035,3.29,-5.29,-1.04,6.31
5.988556861877441,3.51,-5.1,-0.66,6.22
5.998065948486328,3.49,-4.71,-0.09,5.86
6.0073628425598145,3.86,-4.53,-0.43,5.96
6.017377853393555,3.64,-4.38,-0.73,5.74
6.029911041259766,3.04,-4.18,-0.83,5.23
6.0386269092559814,2.57,-4.29,-0.81,5.06
6.048041820526123,2.38,-4.18,-0.69,4.85
6.057452917098999,2.95,-3.75,-0.36,4.78
6.06742000579834,3.94,-2.91,-0.15,4.9
6.079887866973877,4.51,-2.16,-0.68,5.04
6.088665008544922,4.77,-1.61,-1.45,5.23
6.09824275970459,4.58,-0.89,-1.34,4.85
6.1075439453125,4.36,-0.5,-1.12,4.52
6.11750602722168,4.27,-0.18,-0.54,4.3
6.130039930343628,4.32,0.25,0.15,4.32
6.138700008392334,4.15,0.82,0.69,4.28
6.148190975189209,3.84,1.22,0.82,4.11
6.157603979110718,3.66,1.45,0.83,4.02
6.1675519943237305,3.9,1.87,1.5,4.57
6.180109977722168,4.13,2.45,2.83,5.57
6.1888108253479,4.32,3.01,4.09,6.66
6.198237895965576,4.24,3.68,4.94,7.47
6.207711935043335,3.75,4.47,5.2,7.81
6.217568874359131,3.14,5.15,4.87,7.75
6.230148792266846,2.64,5.58,4.36,7.55
6.238743782043457,2.1,5.99,4.19,7.6
6.24812388420105,1.38,6.08,4.06,7.44
6.2575929164886475,0.3,5.9,3.84,7.04
6.267614841461182,-0.99,5.92,3.85,7.13
6.279988765716553,-1.9,6.13,4.16,7.64
6.288618087768555,-2.34,6.42,4.62,8.24
6.298255920410156,-2.31,7.08,5.39,9.19
6.307593822479248,-1.87,7.95,6.28,10.3
6.317612886428833,-1.71,8.65,6.61,11.01
6.3299949169158936,-2.36,9.09,6.13,11.21
6.338658809661865,-3.38,9.86,5.19,11.64
6.348247051239014,-4.52,10.27,3.63,11.79
6.357699871063232,-5.27,10.43,2.07,11.86
6.367680072784424,-5.24,10.61,1.67,11.95
6.3799989223480225,-4.69,10.43,2.43,11.69
6.388722896575928,-3.47,10.14,3.15,11.17
6.398413896560669,-2.42,9.72,3.58,10.63
6.407728910446167,-2.36,9.31,3.72,10.29
6.417737007141113,-2.67,8.86,3.79,9.99
6.430234909057617,-2.52,8.7,3.98,9.89
6.438824892044067,-2.06,8.3,3.96,9.42
6.448440074920654,-1.75,7.78,3.69,8.78
6.457799911499023,-1.57,7.48,3.52,8.41
6.467751979827881,-1.28,6.96,3.37,7.83
6.480208873748779,-1.15,6.17,3.01,6.96
6.488708019256592,-0.88,5.75,2.59,6.36
6.498456001281738,-0.44,5.26,2.13,5.69
6.507735967636108,0.07,4.56,1.95,4.95
6.517756938934326,0.8,4.2,2.16,4.79
6.530139923095703,1.55,3.96,2.31,4.83
6.538806915283203,2.26,3.9,2.6,5.2
6.548444986343384,3.07,3.36,2.85,5.37
6.557831764221191,3.4,2.36,2.81,5.0
6.567689895629883,3.6,1.69,2.55,4.72
6.580168962478638,3.74,0.88,1.98,4.32
6.588821887969971,3.71,-0.05,1.2,3.89
6.598553895950317,3.57,-0.76,0.39,3.67
6.60772705078125,3.69,-1.29,-0.18,3.91
6.617879867553711,4.02,-1.54,-0.27,4.31
6.630386829376221,4.3,-1.76,0.08,4.64
6.638978004455566,4.88,-1.73,0.46,5.19
6.648681879043579,5.4,-2.08,0.56,5.81
6.657937049865723,5.83,-2.94,0.86,6.58
6.667780876159668,5.56,-3.53,1.39,6.73
6.680217981338501,4.98,-4.0,1.97,6.68
6.68883490562439,4.65,-4.51,2.47,6.93
6.698586940765381,5.07,-4.94,2.71,7.57
6.707796096801758,5.52,-5.43,2.56,8.15
6.717916965484619,5.32,-5.98,1.9,8.22
6.730319976806641,4.69,-6.43,1.05,8.02
6.738966941833496,4.11,-6.75,0.27,7.9
6.748568058013916,3.71,-7.01,-0.3,7.93
6.75794792175293,3.68,-7.06,-0.57,7.98
6.767916917800903,3.77,-7.01,-0.66,7.98
6.780172824859619,3.66,-6.93,-0.71,7.86
6.788917064666748,3.89,-7.22,-1.0,8.26
6.798655986785889,3.62,-6.9,-1.22,7.88
6.807844877243042,3.18,-6.9,-1.72,7.78
6.817939758300781,2.83,-7.05,-2.33,7.94
6.830409049987793,2.44,-7.07,-2.43,7.86
6.839015007019043,2.21,-6.94,-1.91,7.52
6.848480939865112,2.19,-6.87,-1.2,7.3
6.8580098152160645,2.31,-6.83,-0.78,7.25
6.867923974990845,2.45,-6.53,-0.62,7.0
6.880353927612305,2.59,-6.08,-0.43,6.62
6.8889288902282715,2.79,-5.84,-0.44,6.48
6.898722887039185,2.93,-5.59,-0.63,6.34
6.9079179763793945,2.83,-5.43,-0.96,6.19
6.918013095855713,2.53,-5.53,-1.37,6.23
6.930521011352539,2.28,-5.46,-1.61,6.13
6.938947916030884,2.18,-5.31,-1.61,5.96
6.948660850524902,2.33,-5.12,-1.52,5.82
6.958049774169922,2.55,-5.01,-1.5,5.81
6.9679388999938965,2.76,-4.76,-1.47,5.69
6.980520963668823,2.98,-4.39,-1.27,5.45
6.989007949829102,3.26,-4.01,-0.94,5.25
6.998656988143921,3.59,-3.64,-0.57,5.14
7.007944107055664,3.85,-3.22,-0.13,5.02
7.0180699825286865,3.7,-2.83,0.22,4.66
7.030292987823486,3.42,-2.52,0.52,4.27
7.039164066314697,3.13,-2.15,0.75,3.87
7.0487518310546875,3.14,-1.72,0.98,3.71
7.058073997497559,3.42,-1.16,1.27,3.82
7.068100929260254,3.61,-0.53,1.59,3.98
7.080575942993164,3.64,-0.09,1.87,4.09
7.089213848114014,3.49,0.35,2.09,4.08
7.098703861236572,3.35,0.85,2.05,4.01
7.107966899871826,3.25,1.3,1.85,3.95
7.1180009841918945,3.11,1.55,1.52,3.79
7.13051176071167,3.06,1.94,1.24,3.82
7.139190912246704,2.86,2.22,1.17,3.8
7.148659944534302,2.4,2.24,1.29,3.52
7.158130884170532,2.0,2.27,1.45,3.35
7.168127059936523,1.79,2.66,1.55,3.56
7.180452823638916,1.59,3.15,1.65,3.89
7.189158916473389,1.15,3.56,1.96,4.22
7.198702812194824,0.7,3.92,2.29,4.59
7.208067893981934,0.04,4.3,2.63,5.04
7.218206882476807,-0.47,4.53,2.91,5.4
7.230510950088501,-0.96,5.14,3.51,6.29
7.239242076873779,-1.83,5.88,4.37,7.55
7.248760938644409,-2.44,6.52,4.95,8.54
7.258236885070801,-2.86,7.07,5.17,9.21
7.268117904663086,-3.05,8.26,5.46,10.36
7.280584812164307,-3.07,9.15,5.39,11.05
7.2893359661102295,-2.98,9.82,4.78,11.32
7.298804759979248,-2.75,10.52,3.97,11.57
7.30817985534668,-2.71,11.02,3.62,11.91
7.3181939125061035,-3.1,11.25,3.69,12.23
7.330679893493652,-3.65,11.0,3.8,12.19
7.3392510414123535,-3.6,10.44,3.89,11.7
7.348730087280273,-3.11,10.26,3.87,11.39
7.358238935470581,-3.03,10.12,3.82,11.23
7.368169784545898,-2.96,9.51,3.69,10.62
7.380486011505127,-2.85,8.97,3.52,10.04
7.389250755310059,-2.41,8.69,3.37,9.62
7.3988938331604,-2.03,8.41,3.39,9.29
7.408243894577026,-2.01,8.06,3.27,8.92
7.418216943740845,-2.18,7.74,2.9,8.54
7.430688858032227,-1.88,7.3,2.72,8.01
7.439283847808838,-1.35,7.09,3.14,7.87
7.448887825012207,-0.79,6.71,3.47,7.59
7.458308935165405,-0.18,6.63,3.88,7.68
7.468213081359863,0.93,6.71,4.17,7.95
7.480674982070923,2.06,6.79,4.44,8.37
7.48920202255249,2.18,6.91,4.67,8.62
7.498845100402832,2.65,6.37,4.57,8.27
7.50819993019104,3.67,5.96,4.87,8.52
7.518314838409424,4.87,5.43,5.29,9.01
7.530679941177368,5.52,4.4,5.36,8.86
7.539332866668701,5.51,3.27,5.38,8.36
7.5488409996032715,5.38,2.16,5.45,7.95
7.558365821838379,5.46,0.99,5.52,7.82
7.568342924118042,5.8,0.17,5.72,8.14
7.5806169509887695,6.34,-0.83,5.71,8.57
7.589294910430908,7.1,-1.98,4.86,8.82
7.5989990234375,7.22,-2.84,3.77,8.62
7.608268976211548,7.1,-3.95,2.66,8.54
7.618302822113037,6.97,-5.14,1.69,8.82
7.630672931671143,6.95,-5.7,0.92,9.03
7.639432907104492,7.06,-6.22,0.31,9.41
7.649045944213867,7.07,-7.12,-0.22,10.03
7.658390045166016,6.92,-7.74,-0.58,10.39
7.668294906616211,6.59,-8.2,-0.92,10.56
7.680691957473755,6.29,-8.61,-1.34,10.74
7.689407825469971,6.04,-8.94,-1.64,10.91
7.699048042297363,5.88,-9.05,-1.46,10.89
7.708453893661499,6.26,-9.19,-1.72,11.25
7.718380928039551,5.81,-8.97,-1.73,10.82
7.730849981307983,5.4,-8.35,-1.6,10.07
7.73944091796875,5.56,-7.92,-1.58,9.8
7.749008893966675,5.73,-7.48,-1.64,9.56
7.758507966995239,5.61,-7.06,-1.58,9.15
7.76838493347168,5.82,-6.8,-2.08,9.18
7.780746936798096,5.67,-6.39,-2.27,8.83
7.789477825164795,5.66,-5.86,-2.22,8.44
7.7991228103637695,5.56,-5.6,-1.9,8.11
7.80842399597168,5.16,-5.21,-1.37,7.45
7.8183817863464355,4.83,-4.93,-1.15,6.99
7.83087682723999,4.63,-4.53,-1.01,6.55
7.839522838592529,4.75,-4.26,-0.87,6.43
7.849081993103027,5.1,-3.95,-0.68,6.48
7.858520030975342,5.33,-3.51,-0.3,6.38
7.868343830108643,5.32,-3.49,0.03,6.36
7.880773067474365,4.86,-3.65,-0.11,6.07
7.889608860015869,3.94,-3.6,-0.52,5.36
7.899080991744995,3.33,-3.49,-0.79,4.88
7.908452033996582,3.02,-3.47,-0.89,4.68
7.918461799621582,3.05,-3.46,-0.96,4.71
7.9308857917785645,3.16,-3.2,-0.62,4.53
7.939640998840332,3.36,-2.95,-0.17,4.47
7.9490838050842285,3.44,-2.64,0.21,4.34
7.958509922027588,3.42,-2.17,0.52,4.08
7.968445777893066,3.21,-1.96,0.34,3.77
7.980668067932129,2.65,-1.7,0.05,3.14
7.989566802978516,2.89,-1.61,-0.25,3.31
7.999172925949097,2.77,-0.79,-0.08,2.88
8.008522033691406,3.19,-0.56,-0.32,3.25
8.018524885177612,3.35,-0.09,-0.56,3.39
8.030662059783936,3.4,0.36,-0.54,3.46
8.039668083190918,3.19,0.85,-0.75,3.38
8.049194812774658,3.0,0.84,-0.54,3.16
8.058533906936646,3.08,0.75,-0.14,3.17
8.06851577758789,2.84,1.42,0.56,3.22
8.08076810836792,2.78,1.84,1.14,3.52
8.089579105377197,2.82,2.32,1.76,4.05
8.0991849899292,3.47,2.35,2.61,4.93
8.108553886413574,3.22,3.22,3.37,5.66
8.118589878082275,2.63,4.11,3.73,6.14
8.130842924118042,2.39,4.73,3.93,6.59
8.139724969863892,1.94,5.51,4.64,7.46
8.14919376373291,1.82,5.61,5.12,7.81
8.158652782440186,1.38,5.9,5.02,7.86
8.168587923049927,1.02,6.63,4.48,8.06
8.1806960105896,0.94,6.76,4.13,7.97
8.189605951309204,0.37,6.77,4.22,7.98
8.199286937713623,-0.23,6.82,4.19,8.0
8.208568096160889,-0.74,6.58,3.59,7.53
8.218549966812134,-1.36,6.38,2.93,7.15
8.230638980865479,-2.1,6.23,2.32,6.97
8.239743947982788,-2.89,5.81,1.7,6.7
8.249227046966553,-3.44,5.46,1.12,6.54
8.258704900741577,-4.11,5.15,0.79,6.63
8.268656969070435,-4.92,4.97,0.51,7.01
8.280663013458252,-5.64,4.95,0.44,7.51
8.289764881134033,-5.91,4.8,0.64,7.64
8.299323081970215,-6.41,4.86,1.04,8.11
8.30863094329834,-6.82,4.9,1.3,8.49
8.318646907806396,-7.01,4.85,1.4,8.63
8.330822944641113,-7.19,4.93,1.48,8.84
8.339843988418579,-7.38,4.84,1.62,8.97
8.34941291809082,-7.6,4.71,1.65,9.09
8.35874891281128,-7.24,4.92,1.78,8.93
8.368680953979492,-6.31,5.49,2.34,8.68
8.380795001983643,-5.46,5.98,2.67,8.52
8.389733791351318,-4.79,6.55,2.8,8.58
8.39934492111206,-4.46,6.95,3.07,8.81
8.408724784851074,-4.07,6.97,3.47,8.78
8.41865587234497,-3.33,6.92,3.64,8.49
8.430769920349121,-2.71,6.71,3.78,8.16
8.439789772033691,-2.25,6.12,3.96,7.62
8.449333906173706,-2.23,5.5,4.04,7.17
8.45891284942627,-1.64,5.21,3.95,6.74
8.468721866607666,-0.41,5.24,4.09,6.65
8.480724811553955,0.75,5.35,4.01,6.72
8.489946842193604,1.91,5.64,3.66,6.98
8.499401092529297,3.16,5.48,3.26,7.11
8.508707046508789,3.87,4.96,2.91,6.93
8.518686771392822,4.12,4.55,2.62,6.67
8.530785083770752,4.38,4.26,2.51,6.6
8.539975881576538,4.78,3.92,2.39,6.62
8.549447059631348,5.18,3.48,1.81,6.49
8.558799982070923,5.49,3.03,1.25,6.39
8.568599939346313,5.56,2.41,1.03,6.14
8.580927848815918,5.57,2.01,1.13,6.02
8.589781761169434,5.84,1.73,1.17,6.2
8.599380016326904,6.03,1.17,1.11,6.24
8.608750820159912,6.16,0.39,1.14,6.27
8.61879301071167,6.19,-0.5,1.03,6.29
8.63085389137268,5.65,-1.37,0.61,5.84
8.639829874038696,4.93,-2.35,0.1,5.46
8.64958381652832,4.76,-3.09,-0.19,5.67
8.659061908721924,5.08,-3.52,-0.47,6.19
8.66885495185852,5.56,-3.99,-0.77,6.88
8.681005954742432,5.51,-4.48,-0.96,7.16
8.69019889831543,5.0,-5.06,-1.14,7.2
8.69978380203247,4.47,-5.53,-1.23,7.21
8.70897889137268,4.26,-5.96,-1.28,7.43
8.718954086303711,4.55,-6.18,-1.2,7.76
8.730928897857666,4.89,-6.24,-1.05,7.99
8.740018844604492,4.99,-6.51,-1.02,8.26
8.749541759490967,5.04,-6.8,-1.11,8.53
8.759021759033203,4.62,-6.84,-1.29,8.35
8.768828868865967,4.35,-6.98,-1.52,8.36
8.780943870544434,4.43,-7.08,-1.75,8.53
8.789867877960205,4.34,-7.01,-1.89,8.45
8.79952597618103,4.12,-6.9,-1.96,8.27
8.808892965316772,4.04,-6.75,-1.86,8.08
8.818922996520996,4.11,-6.53,-1.56,7.87
8.831006050109863,4.2,-6.2,-1.22,7.58
8.840006828308105,4.19,-5.89,-1.02,7.29
8.84970998764038,4.24,-5.61,-0.87,7.08
8.859040975570679,4.2,-5.32,-0.76,6.82
8.868771076202393,4.02,-4.95,-0.76,6.42
8.880974769592285,3.81,-4.47,-0.83,5.93
8.889961957931519,3.61,-4.15,-0.92,5.57
8.899638891220093,3.48,-3.84,-0.93,5.26
8.908998012542725,3.49,-3.44,-0.97,4.99
8.918880939483643,3.57,-2.97,-0.93,4.73
8.931150913238525,3.75,-2.68,-0.76,4.67
8.940147876739502,3.67,-2.51,-0.41,4.46
8.949671983718872,3.44,-2.25,-0.11,4.11
8.959038972854614,3.21,-2.15,0.09,3.86
8.968929767608643,2.96,-1.89,0.36,3.53
8.981169939041138,2.98,-1.52,0.76,3.43
8.989990949630737,2.95,-1.16,1.16,3.37
8.99961805343628,2.97,-0.8,1.25,3.32
9.009067058563232,2.83,-0.48,1.11,3.07
9.019041061401367,2.53,-0.39,0.79,2.67
9.031028985977173,2.49,0.11,0.59,2.56
9.04021406173706,2.73,0.6,0.69,2.87
9.049819946289062,2.89,0.72,0.76,3.07
9.059081077575684,2.68,1.24,0.8,3.05
9.06899881362915,2.55,1.77,0.57,3.15
9.081125974655151,2.51,2.04,0.16,3.23
9.09012508392334,2.47,2.52,-0.25,3.53
9.099816799163818,2.55,3.15,-0.65,4.1
9.109070777893066,2.81,3.68,-1.05,4.74
9.119026899337769,2.92,4.35,-0.92,5.31
9.131258964538574,3.1,4.65,-0.5,5.61
9.140224933624268,2.85,4.86,0.08,5.63
9.149852991104126,2.09,4.9,0.68,5.37
9.159264087677002,1.14,4.73,1.29,5.03
9.169030904769897,0.43,4.71,1.89,5.09
9.181288957595825,0.27,4.99,2.14,5.43
9.190120935440063,0.3,5.16,2.19,5.61
9.199811935424805,-0.11,5.05,2.16,5.49
9.20908784866333,-1.1,5.0,2.23,5.58
9.219027996063232,-1.8,4.89,2.3,5.69
9.231132984161377,-2.12,4.9,2.59,5.93
9.240237951278687,-2.3,5.01,2.89,6.22
9.249876976013184,-2.64,5.2,3.08,6.59
9.259254932403564,-2.95,5.23,3.23,6.81
9.269103050231934,-3.55,5.35,3.15,7.15
9.281222820281982,-4.23,5.86,3.33,7.95
9.290256977081299,-4.25,6.22,3.77,8.42
9.299914836883545,-4.2,6.33,4.07,8.61
9.30918288230896,-4.51,6.23,4.24,8.78
9.319069862365723,-5.1,5.83,4.36,8.88
9.331125974655151,-5.96,5.35,4.36,9.11
9.340328931808472,-6.27,5.44,4.08,9.24
9.350031852722168,-5.62,5.66,3.53,8.72
9.359770774841309,-4.77,5.75,2.91,8.01
9.369285106658936,-4.41,6.03,2.3,7.81
9.383882999420166,-4.25,6.13,1.6,7.62
9.390280961990356,-4.02,5.94,1.04,7.24
9.400054931640625,-3.77,5.79,0.63,6.93
9.409203052520752,-3.42,5.79,0.53,6.74
9.419219970703125,-2.78,5.77,0.84,6.45
9.431289911270142,-2.08,5.7,1.57,6.26
9.440335988998413,-1.51,5.61,2.24,6.22
9.449862003326416,-0.97,5.45,2.45,6.05
9.459672927856445,-0.56,5.29,2.6,5.92
9.469205856323242,-0.22,4.96,2.79,5.69
9.483182907104492,0.11,4.5,2.83,5.31
9.490274906158447,0.43,4.1,2.55,4.84
9.500006914138794,0.75,3.75,2.04,4.33
9.509574890136719,1.11,3.53,1.3,3.92
9.519282817840576,1.69,3.6,0.68,4.03
9.53344202041626,2.71,3.72,0.77,4.66
9.54031491279602,3.58,3.54,1.25,5.18
9.550009965896606,3.98,2.9,1.67,5.19
9.559789896011353,4.03,2.07,2.09,4.98
9.569356918334961,4.07,1.38,2.58,5.01
9.583276987075806,4.18,0.8,2.8,5.09
9.590444087982178,4.58,0.4,2.86,5.41
9.600125789642334,5.26,-0.04,2.67,5.89
9.609675884246826,5.75,-0.64,2.24,6.2
9.619309902191162,5.92,-1.36,1.48,6.25
9.6333589553833,5.78,-2.01,0.47,6.13
9.640501022338867,5.52,-2.78,-0.28,6.18
9.650115966796875,5.45,-3.46,-0.65,6.48
9.659888982772827,5.47,-4.02,-0.93,6.85
9.669538021087646,5.3,-4.54,-1.29,7.09
9.683604955673218,5.08,-5.03,-1.61,7.32
9.690433979034424,4.77,-5.56,-1.66,7.51
9.700210094451904,4.42,-5.87,-1.56,7.51
9.709775924682617,4.32,-6.12,-1.41,7.62
9.71995997428894,4.52,-6.17,-1.2,7.74
9.733535766601562,4.88,-6.14,-1.03,7.91
9.740509033203125,4.84,-6.13,-0.96,7.86
9.750154972076416,4.63,-6.39,-1.14,7.97
9.759907960891724,4.22,-6.54,-1.61,7.94
9.769536018371582,3.69,-6.62,-2.14,7.87
9.783371925354004,3.38,-6.7,-2.32,7.85
9.79042387008667,3.35,-6.49,-2.14,7.61
9.800241947174072,3.43,-6.29,-1.88,7.4
9.80981993675232,3.49,-6.16,-1.62,7.26
9.819448947906494,3.38,-5.78,-1.29,6.81
9.833142757415771,3.48,-5.58,-0.87,6.63
9.840492963790894,3.6,-5.36,-0.56,6.48
9.850172996520996,3.32,-5.11,-0.47,6.11
9.85991907119751,3.14,-4.99,-0.71,5.93
9.869494915008545,3.31,-4.81,-0.9,5.9
9.883378982543945,3.61,-4.56,-0.87,5.88
9.8905611038208,3.7,-4.39,-0.91,5.81
9.90026593208313,3.75,-4.08,-1.06,5.64
9.909907817840576,3.65,-3.86,-1.13,5.43
9.919555902481079,3.51,-3.81,-1.11,5.29
9.933181762695312,3.37,-3.51,-0.93,4.95
9.940490961074829,3.45,-3.2,-0.51,4.73
9.950294017791748,3.56,-3.02,-0.2,4.67
9.960000038146973,3.51,-2.78,-0.12,4.47
9.969603061676025,3.62,-2.33,0.01,4.3
9.983575820922852,4.02,-1.72,0.24,4.37
9.990625858306885,4.25,-1.2,0.58,4.45
10.000312805175781,4.18,-0.68,0.85,4.31
10.0099458694458,4.24,0.06,0.96,4.34
10.019824028015137,4.67,0.9,0.8,4.82
10.03358793258667,5.01,1.62,0.51,5.29
10.040560960769653,4.89,2.13,0.22,5.33
10.050240993499756,4.04,2.3,0.17,4.65
10.059911966323853,3.06,2.25,0.26,3.8
10.069590091705322,2.5,2.39,0.43,3.48
10.083120822906494,2.25,2.71,0.66,3.58
10.090666770935059,2.2,3.13,0.88,3.92
10.100388050079346,2.36,3.63,1.15,4.47
10.109745025634766,2.15,3.85,1.23,4.57
10.119493961334229,1.53,3.9,0.95,4.29
10.132822036743164,0.64,4.0,0.67,4.1
10.140501976013184,0.15,4.16,0.47,4.18
10.150059938430786,0.05,4.49,0.59,4.52
10.15974497795105,0.03,4.84,1.01,4.94
10.169380903244019,-0.33,5.1,1.49,5.32
10.183340072631836,-1.07,5.3,1.91,5.73
10.190535068511963,-1.87,5.32,2.22,6.06
10.200214862823486,-2.36,5.45,2.45,6.42
10.209735870361328,-2.81,5.69,2.86,6.96
10.219507932662964,-3.19,5.89,3.3,7.46
10.232810974121094,-3.63,6.08,3.68,7.98
10.24067211151123,-3.91,6.31,3.9,8.38
10.250279903411865,-4.43,6.57,3.95,8.85
10.259968757629395,-4.97,6.85,3.93,9.33
10.269721031188965,-5.56,6.92,3.63,9.59
10.283033847808838,-6.08,6.82,3.24,9.69
10.290769100189209,-6.4,6.62,3.32,9.78
10.300474882125854,-6.14,6.47,3.85,9.71
10.310176849365234,-5.48,6.28,4.36,9.4
10.319738864898682,-5.04,6.12,4.59,9.16
10.333148956298828,-4.93,6.05,4.59,9.05
10.340833902359009,-4.54,5.74,4.56,8.62
10.350596904754639,-4.37,5.67,4.23,8.31
10.360159873962402,-4.07,5.71,3.76,7.95
10.369823932647705,-3.49,5.87,3.46,7.65
10.383240938186646,-2.53,6.05,3.1,7.25
10.390705108642578,-1.68,6.1,2.61,6.84
10.400475978851318,-1.35,5.95,2.13,6.46
10.410058975219727,-1.19,5.6,1.66,5.96
10.419822931289673,-0.84,5.42,1.31,5.63
10.433012962341309,-0.19,5.42,1.09,5.53
10.44070291519165,0.66,5.38,0.95,5.5
10.45038890838623,1.55,5.3,0.95,5.6
10.460062980651855,2.18,5.03,1.07,5.58
10.469834804534912,2.51,4.51,1.08,5.27
10.482999801635742,2.82,4.07,0.97,5.04
10.49077296257019,3.05,3.49,0.9,4.72
10.500509977340698,3.11,2.76,0.93,4.26
10.510019779205322,3.13,1.98,1.04,3.84
10.519898891448975,3.27,1.33,1.21,3.73
10.532902956008911,3.59,0.71,1.27,3.87
10.540867805480957,4.02,0.08,1.13,4.17
10.550472974777222,4.08,-0.66,0.87,4.22
10.56003999710083,4.39,-1.29,0.6,4.61
10.569782972335815,4.76,-1.89,0.39,5.13
10.582880973815918,4.76,-2.64,0.12,5.44
10.590846061706543,4.5,-3.47,-0.1,5.68
10.60046100616455,4.26,-4.2,-0.22,5.98
10.60982084274292,4.14,-4.73,-0.29,6.29
10.619857788085938,4.45,-4.94,-0.38,6.65
10.63265085220337,4.85,-5.03,-0.42,6.99
10.640857934951782,5.04,-5.27,-0.54,7.31
10.650468826293945,5.09,-5.35,-0.49,7.4
10.659958839416504,5.12,-5.33,-0.37,7.4
10.670008897781372,5.17,-5.43,-0.31,7.5
10.682533979415894,5.13,-5.46,-0.29,7.49
10.691003799438477,5.02,-5.63,-0.25,7.54
10.70072889328003,4.89,-5.77,-0.3,7.56
10.710063934326172,4.62,-5.86,-0.48,7.47
10.719880104064941,4.43,-5.97,-0.76,7.47
10.732595920562744,4.14,-6.13,-1.01,7.46
10.741004943847656,3.82,-6.25,-1.2,7.42
10.750663757324219,3.62,-6.21,-1.4,7.32
10.759943962097168,3.47,-6.09,-1.54,7.17
10.769908905029297,3.48,-5.98,-1.58,7.09
10.782529830932617,3.66,-5.85,-1.54,7.07
10.79094409942627,3.78,-5.75,-1.44,7.03
10.800615787506104,3.86,-5.7,-1.11,6.97
10.809959888458252,3.89,-5.79,-0.76,7.01
10.820007801055908,3.82,-5.82,-0.57,6.98
10.832542896270752,3.77,-5.69,-0.41,6.83
10.841087818145752,4.02,-5.63,-0.24,6.92
10.850606918334961,4.25,-5.53,-0.01,6.97
10.860008955001831,4.0,-5.44,0.13,6.75
10.869935989379883,3.66,-5.28,0.4,6.43
10.882596015930176,3.51,-5.15,0.61,6.26
10.89117693901062,3.75,-4.83,0.7,6.15
10.900779962539673,3.99,-4.29,0.56,5.88
10.909859895706177,4.22,-3.57,0.28,5.53
10.920045852661133,4.5,-2.64,-0.18,5.22
10.932329893112183,4.97,-1.27,-0.58,5.16
10.941210985183716,5.28,-0.03,-0.77,5.33
10.950659990310669,5.12,0.74,-0.86,5.24
10.960113048553467,4.68,1.62,-0.62,4.99
10.970151901245117,4.51,2.5,-0.06,5.15
10.982625961303711,4.69,3.17,0.74,5.7
10.991057872772217,4.63,3.98,1.45,6.27
11.000793933868408,4.26,4.77,1.91,6.67
11.01003885269165,3.93,5.41,2.26,7.05
11.020196914672852,3.55,5.9,2.53,7.33
11.0327730178833,2.88,6.13,2.43,7.19
11.041869878768921,1.91,6.22,2.09,6.83
11.05067777633667,0.99,6.15,1.81,6.48
11.060034990310669,0.19,6.1,1.53,6.29
11.07011604309082,-0.48,6.12,1.22,6.25
11.082590103149414,-1.17,6.03,1.23,6.26
11.091169834136963,-1.8,5.92,1.38,6.33
11.100766897201538,-2.29,5.92,1.52,6.52
11.110046863555908,-3.03,5.91,1.82,6.88
11.120093822479248,-3.76,5.69,2.08,7.13
11.132405757904053,-4.32,5.61,2.25,7.42
11.141171932220459,-4.43,5.75,2.08,7.55
11.150737762451172,-4.4,5.85,1.65,7.5
11.160170078277588,-4.82,5.72,1.29,7.59
11.170094966888428,-5.52,5.6,1.03,7.93
11.1822190284729,-5.94,5.54,0.81,8.16
11.191122055053711,-6.29,5.72,0.81,8.54
11.200841903686523,-6.28,6.06,1.01,8.78
11.210128784179688,-6.07,6.54,1.23,9.0
11.220158100128174,-5.37,7.11,1.43,9.02
11.232282876968384,-4.34,7.66,1.81,8.98
11.241650104522705,-3.94,8.11,2.37,9.32
11.250846862792969,-3.8,8.37,2.86,9.62
11.2602219581604,-3.69,8.6,3.13,9.86
11.270132064819336,-3.25,8.58,3.22,9.72
11.28227710723877,-2.91,8.56,3.07,9.54
11.291607856750488,-2.51,8.39,2.9,9.22
11.30091905593872,-1.95,8.24,2.94,8.96
11.310122966766357,-1.45,8.03,3.17,8.75
11.320228099822998,-0.9,7.47,3.22,8.18
11.332406997680664,-0.3,6.98,3.04,7.61
11.341630935668945,0.36,6.65,2.96,7.28
11.350876808166504,1.03,6.26,3.03,7.03
11.360254764556885,1.58,5.73,3.04,6.67
11.37026596069336,2.09,5.03,2.86,6.15
11.38225507736206,2.83,4.33,2.65,5.81
11.391572952270508,3.21,3.57,2.49,5.4
11.400991916656494,3.33,2.71,2.32,4.88
11.410445928573608,3.69,2.0,2.14,4.71
11.420260906219482,4.26,1.48,1.94,4.9
11.432207107543945,4.65,0.79,1.39,4.91
11.441638946533203,4.72,0.16,0.7,4.77
11.450872898101807,4.69,-0.48,0.12,4.71
11.460316896438599,4.69,-1.15,-0.33,4.84
11.470293045043945,4.85,-1.69,-0.63,5.17
11.482319831848145,5.11,-2.13,-0.85,5.6
11.491718769073486,5.24,-2.71,-1.06,5.99
11.500998973846436,5.12,-3.28,-1.04,6.16
11.51031494140625,5.1,-3.83,-0.79,6.42
11.520369052886963,5.31,-4.41,-0.55,6.92
11.532310009002686,5.49,-4.95,-0.44,7.4
11.541731834411621,5.54,-5.41,-0.33,7.75
11.551038980484009,5.4,-5.94,-0.23,8.03
11.560382843017578,5.19,-6.42,-0.12,8.25
11.570508003234863,5.09,-6.8,-0.07,8.49
11.582277774810791,5.11,-7.12,-0.1,8.76
11.591760873794556,5.24,-7.36,-0.16,9.03
11.601027965545654,5.36,-7.56,-0.25,9.27
11.610337972640991,5.33,-7.72,-0.43,9.39
11.62035608291626,5.23,-7.81,-0.58,9.41
11.63236689567566,5.0,-7.92,-0.67,9.39
11.641928911209106,4.63,-8.06,-0.74,9.32
11.650934934616089,4.35,-8.14,-0.72,9.25
11.660531997680664,4.23,-8.12,-0.58,9.17
11.67033576965332,4.08,-8.03,-0.35,9.01
11.682435989379883,3.87,-8.02,-0.15,8.9
11.691834926605225,3.64,-7.99,-0.03,8.78
11.701165914535522,3.54,-7.85,0.0,8.61
11.710332870483398,3.75,-7.58,0.0,8.45
11.720419883728027,4.15,-7.31,0.17,8.4
11.732489109039307,4.49,-7.06,0.47,8.38
11.741772890090942,4.6,-6.79,0.67,8.22
11.751128911972046,4.65,-6.52,0.6,8.03
11.760562896728516,4.54,-6.32,0.42,7.79
11.770365953445435,4.47,-6.09,0.1,7.55
11.78248405456543,4.51,-5.65,-0.03,7.22
11.791915893554688,4.73,-5.06,-0.11,6.92
11.801174879074097,4.94,-4.35,-0.38,6.59
11.81049394607544,5.15,-3.35,-0.66,6.17
11.82047176361084,5.2,-2.28,-0.98,5.76
11.832509994506836,5.12,-1.08,-1.18,5.36
11.84192180633545,5.33,0.47,-1.0,5.44
11.851221084594727,6.04,2.45,-0.42,6.53
11.86057186126709,6.79,4.17,0.38,7.97
11.870503902435303,6.64,5.52,1.16,8.71
11.882565021514893,5.69,6.46,1.65,8.76
11.891910076141357,4.77,7.0,2.13,8.73
11.901254892349243,4.19,7.34,2.43,8.79
11.910359859466553,3.85,7.65,2.43,8.9
11.920572757720947,3.14,7.67,2.29,8.59
11.93230676651001,2.12,7.32,1.88,7.84
11.941855907440186,0.72,6.9,1.53,7.1
11.95111608505249,-0.5,6.41,1.28,6.55
11.960530757904053,-1.34,6.1,1.16,6.35
11.970471858978271,-1.82,5.9,1.24,6.29
11.982496976852417,-2.22,5.75,1.49,6.34
11.99192476272583,-2.71,5.58,1.75,6.44
12.001199960708618,-3.0,5.62,1.94,6.65
12.010504961013794,-3.21,5.81,1.89,6.9
12.020616054534912,-3.51,5.94,1.75,7.11
12.032453060150146,-3.68,6.19,1.39,7.33
12.042068004608154,-4.2,6.43,0.98,7.74
12.051238059997559,-4.71,6.41,0.73,7.98
12.060679912567139,-5.22,6.54,0.66,8.39
12.070633888244629,-5.46,6.97,0.88,8.89
12.082623958587646,-5.36,7.28,1.25,9.12
12.092020034790039,-5.47,7.35,1.53,9.28
12.101263999938965,-5.72,7.49,1.85,9.6
12.110499858856201,-5.72,7.62,1.98,9.73
12.120625972747803,-5.53,7.81,1.91,9.75
12.13270378112793,-5.06,8.24,2.04,9.88
12.142021894454956,-4.24,8.65,2.24,9.89
12.15125298500061,-3.57,8.84,2.16,9.77
12.160692930221558,-3.03,8.85,2.11,9.58
12.170702934265137,-2.78,8.51,1.98,9.16
12.18275499343872,-2.68,8.02,1.67,8.61
12.192037105560303,-2.28,7.53,1.4,7.99
12.201428890228271,-1.71,7.0,1.25,7.31
12.21068000793457,-1.21,6.5,1.21,6.72
12.220701932907104,-0.57,6.09,1.37,6.26
12.23284387588501,0.35,5.67,1.64,5.91
12.242163896560669,1.03,5.19,1.85,5.6
12.251337051391602,1.35,4.7,1.83,5.22
12.260709762573242,1.78,4.15,1.79,4.85
12.27051591873169,2.35,3.69,1.9,4.76
12.28266191482544,3.03,3.28,1.96,4.87
12.291975021362305,3.81,2.79,2.1,5.16
12.301357984542847,4.36,2.17,2.16,5.32
12.310545921325684,4.74,1.59,1.99,5.38
12.320651054382324,5.01,1.03,1.55,5.34
12.332746028900146,5.22,0.54,1.1,5.36
12.341989040374756,5.44,-0.01,0.53,5.46
12.35123586654663,5.44,-0.68,-0.23,5.48
12.360668897628784,5.2,-1.45,-0.87,5.46
12.370577812194824,4.99,-2.3,-1.09,5.6
12.382687091827393,4.9,-2.97,-0.89,5.79
12.391958951950073,4.85,-3.56,-0.68,6.05
12.401280879974365,4.85,-4.18,-0.36,6.41
12.41064190864563,4.78,-4.71,0.05,6.71
12.420784950256348,4.71,-5.15,0.33,6.98
12.43303108215332,4.65,-5.49,0.4,7.2
12.44218111038208,4.68,-5.78,0.22,7.44
12.451501846313477,4.56,-6.06,0.1,7.58
12.46097183227539,4.33,-6.34,0.0,7.67
12.470802783966064,4.18,-6.68,-0.17,7.88
12.482809066772461,4.08,-6.9,-0.46,8.02
12.492345809936523,4.11,-7.04,-0.74,8.18
12.501547813415527,4.22,-7.17,-1.01,8.38
12.510741949081421,4.22,-7.22,-1.22,8.45
12.520630836486816,4.29,-7.22,-1.25,8.49
12.532854080200195,4.36,-7.18,-0.99,8.45
12.542181968688965,4.46,-7.01,-0.52,8.32
12.551392078399658,4.55,-6.87,-0.16,8.24
12.560866832733154,4.59,-6.75,0.08,8.16
12.570775985717773,4.54,-6.62,0.32,8.03
12.582932949066162,4.46,-6.51,0.41,7.9
12.592258930206299,4.36,-6.34,0.29,7.69
12.601557970046997,4.38,-6.11,0.09,7.51
12.610759973526001,4.38,-5.84,0.06,7.3
12.620869874954224,4.24,-5.5,-0.08,6.94
12.633021831512451,4.19,-5.25,-0.31,6.72
12.642334938049316,4.12,-4.95,-0.3,6.44
12.651587963104248,4.0,-4.54,-0.11,6.05
12.660926818847656,4.03,-4.12,0.14,5.76
12.670881986618042,4.09,-3.73,0.58,5.56
12.68297290802002,4.01,-3.39,0.98,5.34
12.692322969436646,3.74,-2.97,1.16,4.91
12.701554775238037,3.51,-2.34,1.26,4.4
12.710984945297241,3.4,-1.83,1.37,4.09
12.720999956130981,3.49,-1.23,1.45,3.97
12.732964992523193,3.42,-0.61,1.53,3.79
12.74235987663269,3.24,0.05,1.58,3.6
12.751657962799072,2.97,0.75,1.79,3.54
12.76106595993042,2.81,1.24,2.01,3.67
12.771032810211182,2.76,1.74,1.94,3.79
12.7829749584198,2.53,2.39,1.68,3.86
12.792381763458252,2.33,2.74,1.42,3.86
12.801677942276001,2.14,3.1,1.19,3.95
12.81089997291565,1.95,3.71,0.83,4.27
12.820986986160278,1.88,4.33,0.5,4.74
12.83298397064209,1.65,4.9,0.01,5.17
12.842381954193115,1.23,5.49,-0.68,5.66
12.851576805114746,0.71,5.89,-1.28,6.06
12.86102294921875,0.1,6.18,-1.48,6.35
12.871047973632812,-0.52,6.37,-1.38,6.53
12.883010864257812,-1.06,6.73,-1.05,6.89
12.892542839050293,-1.53,6.88,-0.45,7.06
12.90172791481018,-2.01,6.93,0.4,7.22
12.911001920700073,-2.72,7.06,1.1,7.64
12.921150922775269,-3.35,6.9,1.66,7.84
12.933073043823242,-3.9,6.71,2.26,8.08
12.942482948303223,-4.46,6.72,2.85,8.55
12.951653003692627,-5.14,6.51,4.83,9.59
12.961054801940918,-6.79,7.65,8.2,13.1
12.970943927764893,-5.97,6.92,8.35,12.37
12.98301076889038,-6.12,6.47,8.0,11.97
12.992386817932129,-5.94,6.73,5.28,10.41
13.001861095428467,-5.34,6.0,3.12,8.61
13.010986804962158,-5.56,6.73,2.04,8.96
13.021038055419922,-4.84,7.31,1.61,8.91
13.0331449508667,-3.83,6.89,1.24,7.97
13.042568922042847,-3.61,6.93,1.04,7.88
13.05175495147705,-3.78,7.15,1.21,8.17
13.06107497215271,-3.7,7.26,1.6,8.3
13.071256875991821,-3.24,7.54,1.93,8.43
13.08319902420044,-2.71,7.94,1.87,8.59
13.092652797698975,-2.02,8.26,1.42,8.62
13.101830959320068,-1.23,8.38,1.05,8.53
13.111246109008789,-0.48,8.46,0.87,8.51
13.121188879013062,0.19,8.4,0.79,8.43
13.133111000061035,0.82,8.23,0.74,8.3
13.142552852630615,1.37,7.87,0.69,8.01
13.15178394317627,1.79,7.39,0.57,7.62
13.161169052124023,2.35,6.95,0.46,7.35
13.17131495475769,3.13,6.48,0.43,7.2
13.183193922042847,3.95,5.99,0.22,7.17
13.192605972290039,4.75,5.32,-0.26,7.13
13.201924800872803,5.25,4.33,-0.71,6.84
13.211217880249023,5.31,3.17,-0.78,6.23
13.22116494178772,5.24,2.02,-0.56,5.64
13.233447074890137,5.36,1.05,0.0,5.46
13.242516040802002,5.91,0.34,0.63,5.95
13.251890897750854,6.6,-0.19,1.21,6.71
13.261173963546753,7.04,-1.0,1.63,7.29
13.271406888961792,7.11,-2.01,1.89,7.62
13.283329963684082,6.82,-2.8,1.9,7.61
13.29256296157837,6.47,-3.61,1.74,7.61
13.301939964294434,6.0,-4.65,1.62,7.76
13.311213970184326,5.47,-5.63,1.51,7.99
13.321151971817017,5.01,-6.43,1.35,8.26
13.33334493637085,4.78,-7.07,1.15,8.61
13.342479944229126,4.79,-7.45,0.93,8.9
13.351952075958252,4.71,-7.83,0.73,9.16
13.361249923706055,4.6,-8.16,0.65,9.38
13.371377944946289,4.5,-8.22,0.64,9.39
13.3833749294281,4.51,-8.23,0.59,9.4
13.392446994781494,4.46,-8.32,0.57,9.45
13.402091026306152,4.3,-8.23,0.59,9.3
13.411336898803711,4.35,-8.12,0.48,9.22
13.421432971954346,4.55,-7.96,0.36,9.17
13.433454990386963,4.81,-7.77,0.23,9.14
13.4424569606781,5.06,-7.35,-0.01,8.92
13.452069759368896,5.09,-7.02,-0.21,8.67
13.461403846740723,5.03,-6.87,-0.34,8.52
13.471396923065186,4.82,-6.72,-0.31,8.27
13.483500957489014,4.57,-6.58,-0.25,8.01
13.492408990859985,4.39,-6.46,-0.21,7.81
13.50206708908081,4.36,-6.09,-0.06,7.49
13.51137089729309,4.48,-5.68,0.13,7.23
13.52141284942627,4.71,-5.28,0.11,7.07
13.53336477279663,4.92,-4.73,-0.04,6.82
13.542389869689941,4.99,-4.2,-0.29,6.52
13.552002906799316,4.88,-3.77,-0.47,6.18
13.561408996582031,4.68,-3.29,-0.55,5.74
13.571448802947998,4.58,-2.84,-0.59,5.42
13.583329916000366,4.48,-2.41,-0.48,5.1
13.592320919036865,4.4,-1.92,-0.29,4.8
13.602092981338501,4.34,-1.47,-0.16,4.58
13.611345767974854,4.24,-1.24,-0.23,4.42
13.6213960647583,3.99,-1.01,-0.43,4.13
13.633473873138428,3.77,-0.72,-0.54,3.87
13.642409801483154,3.59,-0.47,-0.58,3.66
13.652080059051514,3.45,-0.25,-0.59,3.5
13.661458015441895,3.2,0.12,-0.35,3.22
13.671442985534668,2.92,0.45,0.38,2.97
13.683402061462402,2.74,0.71,1.32,3.12
13.692494869232178,2.76,1.25,2.17,3.72
13.702131986618042,2.67,1.8,2.64,4.16
13.711446762084961,2.49,2.48,2.84,4.51
13.721482992172241,2.26,3.16,2.88,4.83
13.73351001739502,2.01,3.78,2.82,5.12
13.742449760437012,1.57,4.28,2.5,5.19
13.752129077911377,0.98,4.59,2.07,5.12
13.761462926864624,0.27,4.81,1.6,5.07
13.771512031555176,-0.5,4.99,1.12,5.13
13.78354787826538,-1.37,5.22,0.91,5.47
13.792563915252686,-2.11,5.5,1.1,5.99
13.802186012268066,-2.64,5.85,1.62,6.61
13.81148910522461,-3.07,6.15,2.32,7.25
13.821553945541382,-3.59,6.41,2.95,7.91
13.833493947982788,-4.13,6.95,3.12,8.66
13.842535018920898,-4.39,7.83,2.68,9.36
13.8522310256958,-4.17,8.5,2.15,9.7
13.861495971679688,-4.38,8.97,1.71,10.12
13.871545791625977,-5.19,9.32,1.06,10.72
13.883522033691406,-5.98,9.54,0.27,11.26
13.892487049102783,-6.13,9.81,-0.13,11.56
13.90223503112793,-5.81,10.19,-0.3,11.73
13.911588907241821,-5.37,10.49,-0.18,11.78
13.921567916870117,-4.86,10.54,0.34,11.61
13.933643817901611,-4.54,10.4,0.91,11.38
13.942598819732666,-4.24,10.33,1.35,11.24
13.952265977859497,-3.85,10.19,1.8,11.04
13.961588859558105,-3.39,9.8,2.14,10.58
13.971666812896729,-3.15,9.32,2.38,10.12
13.983642101287842,-3.0,8.9,2.51,9.72
13.992451906204224,-2.51,8.55,2.65,9.29
14.00223684310913,-1.78,8.22,2.82,8.87
14.011650085449219,-0.85,8.0,3.05,8.6
14.02161979675293,0.01,7.78,3.24,8.42
14.033750057220459,0.87,7.46,3.18,8.15
14.042679786682129,1.92,7.12,3.12,8.0
14.052418947219849,2.95,6.52,3.04,7.77
14.061678886413574,3.57,5.68,2.77,7.25
14.071695804595947,3.84,4.84,2.3,6.59
14.083622932434082,4.2,3.97,1.78,6.04
14.092710018157959,4.74,3.13,1.48,5.86
14.102492809295654,5.29,2.36,1.14,5.9
14.111755847930908,5.51,1.5,0.65,5.74
14.12169885635376,5.47,0.62,0.16,5.5
14.133626937866211,5.5,-0.31,-0.09,5.5
14.142711877822876,5.74,-1.26,-0.06,5.87
14.152424812316895,6.12,-2.17,0.01,6.49
14.161739826202393,6.14,-3.13,0.16,6.89
14.17175006866455,5.77,-3.98,0.21,7.01
14.183681964874268,5.45,-4.61,0.32,7.14
14.19275188446045,5.34,-5.17,0.41,7.44
14.202367782592773,5.27,-5.66,0.33,7.74
14.211673974990845,5.18,-6.01,0.09,7.93
14.2217378616333,5.23,-6.25,0.05,8.14
14.233766078948975,5.31,-6.55,0.26,8.43
14.242816925048828,5.12,-6.87,0.43,8.57
14.252438068389893,4.79,-7.07,0.64,8.56
14.261716842651367,4.55,-7.25,0.92,8.6
14.271824836730957,4.56,-7.27,1.13,8.65
14.283742904663086,4.71,-7.28,1.03,8.73
14.292813777923584,4.88,-7.14,0.86,8.69
14.302396774291992,5.07,-6.96,0.74,8.64
14.31170392036438,5.17,-6.89,0.56,8.63
14.321744918823242,5.04,-6.86,0.24,8.51
14.333768844604492,4.8,-6.92,-0.16,8.42
14.342791080474854,4.53,-6.99,-0.47,8.34
14.352519035339355,4.34,-6.97,-0.54,8.22
14.361880779266357,4.22,-6.81,-0.56,8.03
14.37190294265747,4.19,-6.61,-0.51,7.84
14.383810043334961,4.3,-6.49,-0.47,7.79
14.392880916595459,4.33,-6.3,-0.48,7.65
14.402509927749634,4.21,-6.05,-0.39,7.38
14.411828994750977,4.0,-5.86,-0.27,7.1
14.421856880187988,3.95,-5.61,-0.14,6.86
14.433831930160522,4.06,-5.29,0.03,6.66
14.442974090576172,4.07,-4.97,0.22,6.42
14.452514886856079,4.04,-4.72,0.27,6.21
14.461907863616943,3.96,-4.51,0.17,6.0
14.471867084503174,3.74,-4.23,0.1,5.64
14.483902931213379,3.59,-3.92,0.03,5.31
14.492921829223633,3.38,-3.5,0.09,4.86
14.502631902694702,3.12,-2.94,0.23,4.29
14.5117928981781,3.1,-2.1,0.51,3.77
14.527080059051514,3.35,-1.1,0.73,3.6
14.533720016479492,3.53,-0.12,0.56,3.57
14.543025016784668,3.68,0.83,0.01,3.77
14.552494049072266,3.96,1.73,-0.71,4.37
14.561924934387207,4.16,2.4,-1.27,4.96
14.577035903930664,4.27,2.88,-1.45,5.35
14.583885908126831,4.13,3.23,-1.17,5.37
14.592827796936035,3.82,3.66,-0.49,5.31
14.602598905563354,3.44,3.94,0.34,5.24
14.611969947814941,3.08,4.23,1.12,5.35
14.626821041107178,2.9,4.74,1.77,5.83
14.633900880813599,2.98,5.14,2.1,6.3
14.642935991287231,2.96,5.47,2.19,6.59
14.65264081954956,2.46,5.6,1.83,6.38
14.661943912506104,1.61,5.46,1.44,5.87
14.676921844482422,0.61,5.16,1.49,5.4
14.683947086334229,-0.24,4.98,1.53,5.21
14.693149089813232,-0.76,5.0,1.4,5.24
14.702733039855957,-1.16,5.06,1.28,5.34
14.712099075317383,-1.42,5.01,1.36,5.38
14.726969957351685,-1.87,4.95,1.71,5.56
14.733998775482178,-2.54,4.99,2.2,6.01
14.742997884750366,-3.54,4.56,2.21,6.18
14.752697944641113,-4.64,4.46,1.94,6.72
14.762020111083984,-5.02,4.63,1.7,7.03
14.7774977684021,-5.17,5.08,1.64,7.43
14.78414011001587,-4.96,5.76,1.77,7.8
14.79322099685669,-4.93,6.37,1.84,8.26
14.802731037139893,-5.19,6.83,2.0,8.8
14.812061786651611,-5.69,7.14,2.07,9.36
14.827226877212524,-5.92,7.65,2.55,10.0
14.834067821502686,-5.72,7.99,3.23,10.34
14.843086957931519,-5.1,8.39,3.82,10.53
14.85262680053711,-4.31,8.78,4.11,10.6
14.862080097198486,-3.54,9.2,4.16,10.69
14.877280950546265,-2.85,9.8,3.24,10.7
14.884021759033203,-2.49,10.06,2.69,10.7
14.893129825592041,-2.12,10.08,2.29,10.55
14.902766942977905,-1.78,10.0,1.94,10.34
14.912116050720215,-1.26,9.76,1.71,9.98
14.927096843719482,-0.67,9.47,1.65,9.63
14.934037923812866,-0.04,9.05,1.62,9.19
14.943100929260254,0.59,8.54,1.67,8.72
14.952806949615479,1.15,7.85,1.71,8.11
14.962203025817871,1.57,7.04,1.79,7.43
14.977325916290283,2.15,6.49,2.01,7.12
14.984110832214355,2.92,5.96,2.03,6.94
14.993145942687988,3.73,5.06,1.85,6.55
15.00277590751648,4.26,4.22,1.61,6.2
15.01200795173645,4.33,3.51,1.36,5.73
15.02725076675415,4.58,2.67,1.26,5.44
15.034021854400635,4.92,1.9,1.16,5.4
15.0431969165802,5.2,1.16,1.0,5.42
15.052661895751953,5.29,0.39,0.86,5.37
15.062122821807861,5.35,-0.39,0.91,5.44
15.077353954315186,5.44,-1.14,0.88,5.62
15.084134101867676,5.55,-1.86,0.71,5.89
15.093162059783936,5.67,-2.56,0.47,6.23
15.102933883666992,5.62,-3.17,0.27,6.45
15.112138986587524,5.45,-3.83,0.17,6.66
15.127453804016113,5.4,-4.51,0.24,7.03
15.13425588607788,5.08,-5.01,0.32,7.14
15.14324688911438,4.75,-5.48,0.29,7.25
15.152803897857666,4.48,-5.97,0.22,7.46
15.162172794342041,4.3,-6.34,0.24,7.66
15.177463054656982,4.14,-6.46,0.4,7.68
15.184165000915527,4.28,-6.73,0.47,7.98
15.193150043487549,4.34,-6.86,0.36,8.12
15.202842950820923,4.34,-6.96,0.19,8.2
15.212208986282349,4.42,-7.1,-0.03,8.36
15.227477073669434,4.32,-7.11,-0.27,8.32
15.234210014343262,4.31,-7.19,-0.53,8.39
15.243303775787354,4.24,-7.25,-0.74,8.43
15.252862930297852,4.17,-7.28,-0.93,8.44
15.262237071990967,4.06,-7.19,-1.06,8.32
15.277567863464355,3.99,-7.05,-1.04,8.16
15.284243106842041,4.15,-6.97,-0.97,8.16
15.293224811553955,4.43,-6.87,-0.88,8.22
15.303041934967041,4.62,-6.71,-0.72,8.17
15.31212592124939,4.62,-6.63,-0.59,8.1
15.327547073364258,4.45,-6.63,-0.52,8.0
15.334300994873047,4.39,-6.66,-0.49,7.99
15.343437910079956,4.41,-6.55,-0.34,7.9
15.352851867675781,4.41,-6.43,-0.25,7.8
15.362320899963379,4.32,-6.41,-0.4,7.74
15.377615928649902,4.08,-6.28,-0.69,7.52
15.384351968765259,3.96,-6.02,-0.89,7.26
15.393279075622559,4.05,-5.63,-0.81,6.98
15.403111934661865,4.17,-5.35,-0.56,6.8
15.41232681274414,4.05,-5.14,-0.26,6.54
15.427659034729004,3.72,-4.95,-0.1,6.19
15.434197902679443,3.4,-4.81,-0.09,5.89
15.443442821502686,3.27,-4.56,-0.18,5.61
15.4529869556427,3.19,-4.16,-0.32,5.25
15.462424755096436,3.14,-3.46,-0.22,4.67
15.477561950683594,3.36,-2.44,0.1,4.15
15.48435091972351,3.94,-1.21,0.38,4.13
15.493293762207031,4.55,0.28,0.57,4.59
15.503139972686768,5.31,1.64,0.62,5.59
15.512269020080566,5.56,2.68,0.55,6.19
15.527560949325562,5.23,3.49,0.58,6.31
15.534327030181885,4.64,4.17,0.74,6.28
15.543471813201904,4.16,4.63,0.95,6.29
15.55307388305664,3.91,5.1,1.37,6.57
15.562403917312622,3.83,5.69,1.84,7.1
15.57753610610962,3.65,6.26,2.15,7.55
15.584396839141846,3.4,6.74,2.37,7.91
15.593485832214355,2.96,6.81,2.43,7.81
15.603172779083252,2.03,6.77,2.34,7.44
15.612348079681396,1.12,6.48,2.16,6.92
15.62779688835144,-0.14,6.16,1.91,6.45
15.634515762329102,-1.09,6.06,1.58,6.35
15.643455982208252,-1.6,6.04,1.2,6.36
15.653109073638916,-2.26,5.33,0.85,5.85
15.66245985031128,-2.66,5.59,0.78,6.23
15.677580833435059,-2.68,6.13,1.09,6.77
15.684524059295654,-2.69,5.87,1.5,6.62
15.693413972854614,-0.53,9.37,0.4,9.39
15.703430891036987,0.12,12.13,2.82,12.45
15.712371826171875,-3.07,10.79,7.32,13.39
15.72763991355896,-4.97,9.77,8.6,13.93
15.73441195487976,-6.06,8.25,7.69,12.8
15.743664979934692,-6.25,7.62,4.29,10.74
15.753117084503174,-6.49,6.97,2.1,9.75
15.762480974197388,-5.49,7.02,1.44,9.02
15.777434825897217,-3.12,7.55,0.81,8.2
15.784426927566528,-2.05,8.13,1.08,8.45
15.79355001449585,-2.91,7.66,1.98,8.42
15.803188800811768,-3.18,9.1,1.47,9.75
15.812526941299438,-2.32,9.07,0.9,9.4
15.82759690284729,-1.97,9.14,1.53,9.47
15.83445692062378,-1.74,9.59,1.77,9.9
15.843599796295166,-1.01,9.55,2.02,9.81
15.853125095367432,-0.1,9.54,2.31,9.81
15.862582921981812,0.72,9.27,2.4,9.6
15.877685070037842,1.48,8.91,2.42,9.35
15.884536981582642,2.18,8.34,2.52,8.98
15.893563985824585,2.6,7.4,2.63,8.27
15.903099060058594,2.84,6.38,2.63,7.46
15.912500858306885,3.45,5.61,2.54,7.05
15.92763900756836,4.22,4.77,2.28,6.76
15.934566974639893,4.74,3.82,2.05,6.42
15.94362497329712,5.05,2.88,1.76,6.07
15.953236103057861,5.17,1.98,1.42,5.71
15.962610960006714,5.33,1.08,1.11,5.55
15.97767686843872,5.59,0.13,0.9,5.66
15.984551906585693,5.8,-0.8,0.8,5.9
15.993700981140137,5.73,-1.66,0.76,6.01
16.003236770629883,5.49,-2.51,0.58,6.06
16.01252794265747,5.25,-3.35,0.47,6.24
16.027580976486206,5.25,-4.13,0.44,6.69
16.034559965133667,5.29,-4.83,0.4,7.17
16.043768882751465,5.53,-5.53,0.29,7.82
16.05325984954834,5.58,-6.16,0.24,8.31
16.062626838684082,5.61,-6.63,0.25,8.68
16.078065872192383,5.59,-7.12,0.28,9.05
16.084714889526367,5.2,-7.56,0.34,9.18
16.093588829040527,4.78,-8.0,0.34,9.32
16.103496074676514,4.36,-8.38,0.28,9.45
16.1127028465271,4.01,-8.58,0.16,9.47
16.127763986587524,3.89,-8.62,-0.03,9.45
16.134695053100586,4.04,-8.54,-0.33,9.45
16.143798828125,4.47,-8.32,-0.67,9.46
16.153393983840942,4.99,-7.93,-0.86,9.4
16.162728786468506,5.15,-7.7,-0.82,9.29
16.177520990371704,5.03,-7.69,-0.64,9.21
16.184722900390625,4.91,-7.72,-0.3,9.15
16.193586826324463,4.66,-7.72,0.09,9.01
16.20342779159546,4.33,-7.69,0.33,8.83
16.212697982788086,4.03,-7.68,0.27,8.67
16.227745056152344,3.9,-7.43,0.05,8.39
16.23460292816162,3.9,-7.04,-0.19,8.05
16.24390196800232,3.91,-6.78,-0.37,7.83
16.25342607498169,4.02,-6.47,-0.6,7.64
16.262753009796143,4.23,-5.88,-0.89,7.29
16.277390956878662,4.55,-5.43,-1.0,7.15
16.284719944000244,4.74,-5.26,-0.93,7.14
16.293879985809326,4.49,-4.9,-0.71,6.68
16.303475856781006,4.09,-4.63,-0.52,6.19
16.312665939331055,3.74,-4.43,-0.25,5.8
16.32749080657959,3.78,-4.05,0.09,5.54
16.334614992141724,4.12,-3.43,0.43,5.37
16.34391188621521,4.26,-2.82,0.73,5.16
16.353373050689697,4.19,-2.37,0.83,4.88
16.36274003982544,3.92,-1.93,0.71,4.42
16.37743377685547,3.55,-1.59,0.22,3.89
16.384812831878662,3.12,-1.31,-0.31,3.39
16.39376997947693,3.02,-0.94,-0.74,3.24
16.40357494354248,3.09,-0.54,-1.0,3.29
16.412736892700195,3.21,-0.03,-1.21,3.43
16.42736792564392,3.51,0.69,-1.46,3.86
16.434797763824463,3.8,1.67,-1.44,4.39
16.443963050842285,4.1,2.63,-1.18,5.01
16.45346689224243,4.37,3.46,-0.96,5.65
16.462860107421875,4.21,4.33,-0.78,6.08
16.477430820465088,3.65,4.97,-0.39,6.17
16.484859943389893,3.26,5.47,0.41,6.38
16.49393606185913,3.0,6.1,1.45,6.95
16.50355577468872,2.79,6.64,2.33,7.56
16.512847900390625,2.69,7.15,3.03,8.21
16.527431964874268,2.19,7.62,3.65,8.72
16.534821033477783,1.2,7.8,4.07,8.87
16.54390788078308,0.33,7.82,4.18,8.87
16.553608894348145,-0.43,7.76,4.21,8.83
16.56293296813965,-1.42,7.66,4.2,8.85
16.577451944351196,-2.7,7.53,4.13,9.0
16.584968090057373,-3.65,7.33,3.96,9.09
16.593955039978027,-4.21,7.29,3.75,9.21
16.603972911834717,-4.71,7.43,3.51,9.47
16.612836837768555,-5.19,7.57,3.07,9.67
16.627304077148438,-5.31,7.72,2.73,9.75
16.63484001159668,-5.21,8.09,2.57,9.95
16.644108772277832,-5.26,8.2,2.43,10.04
16.653557777404785,-5.6,8.0,2.28,10.02
16.663004875183105,-5.67,8.01,2.42,10.1
16.677193880081177,-5.51,7.93,2.81,10.05
16.68499183654785,-5.4,7.74,3.13,9.94
16.69392991065979,-5.09,7.85,3.03,9.83
16.704068899154663,-4.49,7.87,2.75,9.46
16.712862968444824,-3.61,8.12,2.2,9.15
16.726969957351685,-2.73,8.37,1.37,8.9
16.73482894897461,-2.73,8.17,1.62,8.76
16.744139909744263,-2.58,8.09,1.94,8.71
16.754048824310303,-1.8,8.0,2.16,8.47
16.762927055358887,-0.59,8.06,2.24,8.38
16.77702283859253,0.33,8.07,2.27,8.38
16.78497290611267,1.03,7.81,2.18,8.17
16.79401397705078,1.56,7.46,1.96,7.86
16.804039001464844,2.23,7.18,1.77,7.72
16.813071966171265,2.96,6.64,1.68,7.46
16.827025890350342,3.49,5.93,1.59,7.06
16.835001945495605,3.97,5.26,1.38,6.73
16.84411382675171,4.56,4.43,1.03,6.44
16.854007959365845,5.28,3.72,0.69,6.49
16.863077878952026,5.97,3.13,0.45,6.75
16.87718677520752,6.41,2.32,0.41,6.82
16.885026931762695,6.62,1.39,0.31,6.77
16.894216060638428,6.58,0.56,0.17,6.6
16.90419578552246,6.66,-0.15,0.28,6.66
16.91298484802246,6.97,-0.91,0.56,7.05
16.927061080932617,7.08,-1.68,0.64,7.3
16.935094833374023,6.82,-2.36,0.56,7.23
16.944149017333984,6.61,-3.04,0.57,7.29
16.954043865203857,6.55,-3.76,0.6,7.57
16.963119983673096,6.39,-4.36,0.7,7.76
16.976836919784546,6.14,-4.92,0.72,7.9
16.98509192466736,5.75,-5.54,0.57,8.0
16.99428081512451,5.35,-6.15,0.45,8.16
17.004307985305786,5.14,-6.67,0.4,8.43
17.013097763061523,4.93,-6.89,0.35,8.47
17.02714204788208,4.72,-7.14,0.09,8.55
17.035118103027344,4.56,-7.44,-0.26,8.73
17.044166088104248,4.41,-7.66,-0.54,8.85
17.054061889648438,4.26,-7.84,-0.65,8.94
17.06308388710022,4.13,-7.98,-0.71,9.01
17.077282905578613,4.0,-8.06,-0.79,9.03
17.085195064544678,3.9,-8.15,-0.92,9.08
17.09431791305542,3.79,-8.18,-1.08,9.07
17.104283809661865,3.64,-8.22,-1.18,9.06
17.113173961639404,3.48,-8.27,-1.26,9.06
17.127075910568237,3.33,-8.23,-1.33,8.97
17.135222911834717,3.29,-8.05,-1.36,8.8
17.144280910491943,3.45,-7.82,-1.27,8.64
17.15416383743286,3.65,-7.58,-1.1,8.48
17.163289070129395,3.72,-7.33,-0.9,8.26
17.177265882492065,3.71,-7.13,-0.72,8.06
17.185281991958618,3.81,-6.98,-0.46,7.96
17.194310903549194,3.97,-6.83,-0.26,7.9
17.204360961914062,4.06,-6.54,-0.27,7.7
17.21332097053528,4.16,-6.13,-0.25,7.41
17.22719383239746,4.45,-5.64,-0.14,7.18
17.23522186279297,4.9,-4.76,-0.13,6.83
17.244407892227173,5.55,-3.86,-0.15,6.76
17.254276990890503,6.12,-3.17,-0.08,6.89
17.263317108154297,6.31,-2.64,-0.18,6.84
17.27680206298828,5.72,-2.12,-0.23,6.1
17.285316944122314,4.92,-1.59,-0.14,5.17
17.294408798217773,4.39,-1.0,0.08,4.5
17.304286003112793,4.42,-0.29,0.29,4.43
17.313355922698975,4.76,0.52,0.51,4.81
17.326705932617188,4.73,1.28,0.69,4.94
17.335190773010254,4.45,1.82,0.67,4.85
17.34439182281494,3.87,2.35,0.56,4.56
17.35435390472412,3.26,2.68,0.69,4.27
17.36325979232788,2.82,3.17,1.1,4.38
17.376762866973877,2.76,3.82,1.62,4.98
17.38536787033081,2.78,4.37,2.25,5.64
17.394436836242676,2.56,4.91,2.89,6.24
17.40443706512451,1.87,5.24,3.38,6.5
17.41334295272827,0.97,5.4,3.64,6.58
17.426718950271606,0.2,5.7,3.5,6.69
17.43530797958374,-0.41,5.97,3.17,6.77
17.444419860839844,-1.04,6.23,2.97,6.97
17.454405784606934,-1.47,6.61,2.96,7.39
17.46333408355713,-1.57,7.08,2.86,7.79
17.47663688659668,-1.6,7.68,2.66,8.28
17.485442876815796,-1.57,8.28,2.17,8.7
17.494465827941895,-1.74,8.69,1.56,8.99
17.50452184677124,-2.69,8.87,1.1,9.33
17.513394832611084,-3.51,9.09,0.76,9.77
17.526721954345703,-3.98,9.22,0.65,10.06
17.535400867462158,-4.37,9.22,0.67,10.22
17.544582843780518,-4.63,9.18,0.8,10.31
17.55448293685913,-4.81,9.09,1.1,10.34
17.563425064086914,-5.08,8.9,1.5,10.35
17.576333045959473,-5.25,8.55,2.01,10.23
17.58532476425171,-5.23,8.11,2.4,9.94
17.59441375732422,-4.94,7.78,2.64,9.58
17.604443073272705,-4.45,7.72,2.7,9.31
17.613382816314697,-3.94,7.63,2.42,8.92
17.626506805419922,-3.45,7.64,1.91,8.59
17.63551378250122,-3.0,7.59,1.59,8.31
17.644612789154053,-2.58,7.24,1.44,7.81
17.654533863067627,-2.29,6.79,1.3,7.28
17.663476943969727,-1.85,6.55,1.39,6.94
17.6768319606781,-0.95,6.21,1.75,6.52
17.685587882995605,0.05,5.99,2.26,6.4
17.69471287727356,0.64,5.73,2.69,6.36
17.704694986343384,1.23,5.47,2.81,6.27
17.7135910987854,2.02,5.52,2.74,6.48
17.72654390335083,3.21,5.69,2.66,7.05
17.735553979873657,4.21,5.26,2.28,7.11
17.744541883468628,4.61,4.63,1.58,6.72
17.754570960998535,4.6,4.18,0.98,6.29
17.76353406906128,4.57,3.61,0.71,5.86
17.77679681777954,4.6,2.86,0.81,5.47
17.785589933395386,4.68,2.31,1.12,5.33
17.794617891311646,5.12,2.04,1.34,5.67
17.804627895355225,5.72,1.73,1.44,6.14
17.813573837280273,6.08,1.2,1.48,6.37
17.826449871063232,6.36,0.61,1.46,6.55
17.835596084594727,6.45,0.05,1.33,6.58
17.844605922698975,6.36,-0.64,1.1,6.48
17.854639053344727,6.31,-1.45,0.88,6.53
17.863651990890503,6.09,-2.23,0.74,6.52
17.876364946365356,5.7,-2.96,0.58,6.44
17.885636806488037,5.32,-3.7,0.36,6.49
17.89471197128296,4.98,-4.39,0.32,6.64
17.904738903045654,4.74,-5.02,0.3,6.91
17.913551807403564,4.45,-5.58,0.24,7.14
17.926424980163574,4.27,-6.09,0.11,7.43
17.935739040374756,4.19,-6.52,0.03,7.75
17.944779872894287,4.31,-6.81,-0.04,8.05
17.9546480178833,4.44,-7.05,-0.08,8.33
17.963629961013794,4.4,-7.34,-0.02,8.55
17.976218938827515,4.22,-7.62,-0.01,8.71
17.985723972320557,3.99,-7.89,-0.03,8.84
17.994683980941772,3.82,-8.18,-0.11,9.02
18.004535913467407,3.6,-8.43,-0.26,9.17
18.013591766357422,3.47,-8.65,-0.39,9.32
18.026285886764526,3.42,-8.8,-0.39,9.44
18.035633087158203,3.4,-8.81,-0.33,9.44
18.044785976409912,3.38,-8.78,-0.37,9.41
18.054708003997803,3.4,-8.72,-0.49,9.37
18.063613891601562,3.43,-8.56,-0.64,9.24
18.076536893844604,3.5,-8.37,-0.73,9.1
18.085721969604492,3.8,-8.08,-0.61,8.94
18.09483003616333,4.12,-7.76,-0.39,8.79
18.1047101020813,4.31,-7.51,-0.19,8.66
18.113751888275146,4.18,-7.05,0.04,8.19
18.12654399871826,4.06,-6.49,0.09,7.65
18.13575506210327,3.91,-5.93,0.02,7.1
18.14472198486328,3.89,-5.4,-0.14,6.65
18.15465998649597,4.12,-5.02,-0.3,6.5
18.163861989974976,4.6,-4.36,-0.37,6.34
18.17627191543579,5.16,-3.36,-0.31,6.16
18.18584680557251,5.83,-2.51,-0.19,6.35
18.194798946380615,6.39,-1.73,0.11,6.62
18.204680919647217,6.28,-0.77,0.34,6.33
18.213608980178833,5.79,0.05,0.34,5.8
18.22619891166687,5.38,0.85,0.27,5.45
18.23615598678589,5.25,1.7,0.26,5.52
18.244843006134033,5.35,2.59,0.29,5.95
18.25460910797119,5.34,3.55,0.42,6.42
18.26383399963379,5.13,4.2,0.58,6.65
18.276108980178833,4.81,4.69,0.73,6.75
18.286101818084717,3.98,5.16,0.93,6.58
18.294842958450317,2.98,5.34,1.0,6.19
18.304626941680908,2.3,5.46,1.06,6.01
18.31390690803528,2.01,5.77,1.37,6.26
18.32611894607544,1.76,6.04,1.9,6.57
18.336143016815186,1.26,6.22,2.63,6.86
18.344773769378662,0.58,6.22,3.22,7.02
18.35475492477417,-0.18,6.47,3.63,7.42
18.363735914230347,-0.82,6.68,3.63,7.64
18.376149892807007,-1.29,6.73,3.16,7.54
18.386143922805786,-1.73,6.71,2.49,7.36
18.39491081237793,-2.33,6.78,2.06,7.45
18.404611110687256,-3.11,6.44,1.62,7.33
18.413846015930176,-4.24,5.79,1.05,7.25
18.42604398727417,-4.72,5.87,0.71,7.56
18.43618106842041,-4.75,6.04,1.13,7.76
18.444865942001343,-4.87,6.11,1.63,7.98
18.45465397834778,-5.2,6.5,1.85,8.52
18.463988780975342,-5.02,6.94,1.54,8.7
18.475914001464844,-4.85,7.07,1.1,8.64
18.48622179031372,-5.29,7.03,0.85,8.83
18.494967937469482,-5.84,6.83,0.92,9.03
18.504703998565674,-5.58,6.78,1.04,8.84
18.51384997367859,-4.73,6.78,1.1,8.33
18.52619695663452,-4.21,6.81,1.19,8.09
18.536264896392822,-4.06,6.87,1.24,8.07
18.545036792755127,-4.11,6.77,1.37,8.03
18.55457305908203,-4.2,6.62,1.96,8.08
18.56397294998169,-3.84,6.71,2.49,8.12
18.576000928878784,-2.96,7.1,2.4,8.05
18.586376905441284,-2.07,7.44,1.89,7.95
18.59498405456543,-1.58,7.39,1.88,7.78
18.604641914367676,-1.29,7.37,2.09,7.76
18.61390209197998,-0.68,7.36,2.32,7.74
18.6259708404541,0.16,7.5,2.46,7.89
18.63626194000244,1.19,7.74,2.69,8.28
18.64502477645874,2.28,7.73,2.83,8.54
18.654603958129883,3.11,7.62,2.79,8.69
18.663962841033936,3.76,7.15,2.52,8.46
18.675983905792236,4.37,6.42,2.09,8.04
18.68639087677002,4.88,5.73,1.63,7.7
18.695003986358643,5.19,4.95,1.25,7.28
18.704673767089844,5.44,4.04,0.93,6.83
18.71395492553711,5.54,3.18,0.69,6.42
18.726283073425293,5.82,2.41,0.44,6.31
18.73638105392456,6.2,1.59,0.29,6.4
18.745020866394043,6.32,0.67,0.33,6.36
18.754615783691406,6.16,-0.18,0.43,6.17
18.76408100128174,5.92,-1.02,0.49,6.02
18.77595806121826,5.71,-1.92,0.48,6.04
18.786523818969727,5.53,-2.85,0.47,6.23
18.795104026794434,5.42,-3.73,0.56,6.6
18.804863929748535,5.17,-4.54,0.73,6.91
18.814066886901855,4.89,-5.26,0.89,7.23
18.825897932052612,4.82,-5.78,1.05,7.59
18.836452960968018,4.96,-6.18,1.19,8.01
18.845247983932495,5.18,-6.5,1.17,8.39
18.854796886444092,5.31,-6.83,1.04,8.71
18.864052772521973,5.2,-7.16,0.9,8.89
18.87587594985962,4.95,-7.52,0.79,9.03
18.886610984802246,4.57,-7.91,0.69,9.16
18.895084857940674,4.33,-8.1,0.6,9.2
18.90482187271118,4.22,-8.15,0.28,9.18
18.91404676437378,4.09,-8.19,-0.3,9.15
18.925875902175903,4.01,-8.15,-0.84,9.12
18.936408042907715,3.86,-8.12,-1.23,9.07
18.945197105407715,3.78,-8.05,-1.54,9.02
18.954731941223145,3.8,-7.95,-1.88,9.0
18.964058876037598,3.8,-7.72,-2.09,8.85
18.975794792175293,3.88,-7.69,-2.23,8.89
18.986589908599854,3.77,-7.55,-2.41,8.77
18.995244026184082,3.72,-7.27,-2.48,8.53
19.004767894744873,3.83,-7.16,-2.36,8.45
19.014118909835815,3.91,-6.97,-1.99,8.23
19.025681018829346,3.93,-6.59,-1.47,7.81
19.03660798072815,4.18,-6.16,-1.01,7.51
19.045182943344116,4.4,-5.84,-0.65,7.34
19.054728984832764,4.45,-5.51,-0.43,7.09
19.064151763916016,4.24,-5.1,-0.31,6.63
19.075660943984985,4.06,-4.83,-0.18,6.31
19.086584091186523,4.01,-4.57,0.0,6.07
19.095215797424316,3.91,-4.21,0.13,5.74
19.104916095733643,3.7,-3.87,0.15,5.35
19.114053964614868,3.7,-3.42,0.13,5.04
19.12589192390442,3.64,-2.79,0.28,4.59
19.136547088623047,3.59,-1.9,0.48,4.09
19.14526605606079,3.79,-0.88,0.69,3.95
19.154754877090454,4.25,0.15,0.77,4.32
19.164188861846924,4.74,1.09,0.57,4.89
19.17570209503174,4.75,2.04,0.34,5.18
19.186720848083496,4.35,2.62,0.06,5.07
19.195292949676514,4.1,3.08,-0.14,5.12
19.204970836639404,4.08,3.69,-0.08,5.5
19.214237928390503,4.26,4.3,0.07,6.05
19.225703954696655,4.56,4.92,0.36,6.71
19.236648082733154,4.67,5.29,0.8,7.1
19.245368003845215,4.41,5.43,1.45,7.14
19.254826068878174,3.8,5.4,2.14,6.94
19.26429796218872,3.08,5.36,2.5,6.66
19.275569915771484,2.26,5.24,2.6,6.27
19.286727905273438,1.54,5.28,2.41,6.0
19.295350074768066,1.04,5.34,2.17,5.85
19.305134773254395,0.61,5.52,1.93,5.87
19.3143048286438,0.12,5.73,1.72,5.98
19.325500965118408,-0.69,5.89,1.54,6.12
19.336683988571167,-1.34,6.01,1.5,6.33
19.345371961593628,-1.68,6.41,1.92,6.89
19.355053901672363,3.01,13.27,-0.84,13.63
19.364355087280273,1.97,10.65,-2.39,11.09
19.375671863555908,-11.57,0.97,3.75,12.2
19.386759757995605,-13.12,4.36,8.49,16.22
19.395426988601685,-5.27,4.89,9.38,11.81
19.405110836029053,-0.71,4.67,7.74,9.06
19.41441583633423,-0.84,7.5,4.47,8.77
19.425580978393555,-3.68,7.93,1.62,8.89
19.436814785003662,-7.11,6.57,2.0,9.88
19.44545602798462,-7.81,5.92,2.56,10.12
19.455116987228394,-6.41,5.86,2.22,8.96
19.464481830596924,-5.08,6.44,1.96,8.43
19.475627899169922,-4.46,6.47,1.56,8.01
19.486836910247803,-4.62,6.36,1.3,7.96
19.495410919189453,-4.89,6.34,1.43,8.13
19.505177974700928,-4.33,6.4,1.64,7.89
19.514548778533936,-3.53,6.53,2.2,7.74
19.52537202835083,-2.84,6.53,2.75,7.63
19.53686285018921,-2.57,6.43,3.06,7.57
19.54557490348816,-2.26,6.57,3.11,7.61
19.55517888069153,-1.42,6.91,3.13,7.71
19.56451392173767,-0.22,7.32,3.3,8.03
19.575424909591675,1.04,7.52,3.37,8.3
19.58691692352295,2.05,7.46,3.15,8.35
19.59551191329956,2.61,7.36,2.89,8.32
19.605219841003418,2.88,7.0,2.57,7.99
19.614448070526123,3.31,6.46,2.19,7.58
19.625385761260986,3.84,5.91,1.91,7.3
19.63688588142395,4.62,5.41,1.7,7.31
19.64553189277649,5.27,4.73,1.52,7.24
19.655203819274902,5.6,3.88,1.31,6.93
19.664500951766968,5.74,2.9,1.04,6.51
19.675460815429688,5.66,1.95,0.91,6.05
19.68691396713257,5.51,0.89,0.97,5.66
19.695632934570312,5.13,-0.13,1.02,5.23
19.705316066741943,4.84,-0.91,1.21,5.07
19.71464991569519,4.99,-1.39,1.57,5.41
19.725141048431396,5.55,-1.8,1.8,6.1
19.736916065216064,6.23,-2.51,1.63,6.91
19.745526790618896,6.4,-3.19,1.36,7.27
19.755199909210205,5.97,-3.76,1.06,7.13
19.76452398300171,5.46,-4.34,0.65,7.0
19.775289058685303,5.21,-5.04,0.15,7.25
19.787036895751953,5.02,-5.52,-0.11,7.46
19.795642852783203,4.95,-6.02,-0.27,7.79
19.80535078048706,4.94,-6.41,-0.52,8.1
19.814623832702637,5.06,-6.72,-0.79,8.44
19.825008869171143,5.44,-6.93,-1.04,8.87
19.83695697784424,5.56,-6.94,-1.1,8.96
19.845622062683105,5.48,-7.03,-1.12,8.98
19.85522985458374,5.34,-7.2,-1.2,9.04
19.864705085754395,5.26,-7.36,-1.24,9.13
19.875035762786865,5.1,-7.43,-1.33,9.1
19.8871488571167,5.1,-7.49,-1.39,9.16
19.895651817321777,5.04,-7.38,-1.38,9.04
19.90536403656006,5.06,-7.18,-1.44,8.9
19.914885997772217,5.13,-6.85,-1.46,8.68
19.92517900466919,5.24,-6.6,-1.38,8.53
19.937045097351074,5.24,-6.41,-1.31,8.38
19.94571876525879,4.93,-6.2,-1.34,8.03
19.955338954925537,4.61,-6.17,-1.35,7.81
19.96479296684265,4.36,-6.15,-1.23,7.63
19.975165843963623,4.18,-6.01,-1.06,7.39
19.987441062927246,4.11,-5.96,-1.04,7.31
19.995748043060303,4.0,-5.88,-1.03,7.18
20.00539493560791,3.77,-5.66,-0.92,6.86
20.014708042144775,3.65,-5.42,-0.8,6.58
20.025070905685425,3.48,-5.29,-0.73,6.37
20.037228107452393,3.3,-5.03,-0.84,6.07
20.045701026916504,3.21,-4.68,-0.96,5.75
20.055339813232422,3.24,-4.56,-1.03,5.68
20.064692974090576,3.48,-4.24,-1.02,5.57
20.074991941452026,3.82,-3.58,-0.94,5.31
20.087249755859375,4.08,-2.86,-0.7,5.03
20.095776081085205,4.26,-2.24,-0.41,4.83
20.105548858642578,4.31,-1.49,-0.05,4.56
20.11480689048767,4.37,-0.58,0.51,4.43
20.12541103363037,4.5,0.37,1.08,4.64
20.137213945388794,4.63,1.27,1.54,5.04
20.14580202102661,4.57,2.11,1.82,5.35
20.15547275543213,4.32,3.06,2.01,5.66
20.164816856384277,3.96,3.76,2.19,5.88
20.175172805786133,3.39,4.23,2.38,5.92
20.187303066253662,2.67,4.86,2.68,6.15
20.1958589553833,2.06,5.44,2.92,6.5
20.20561981201172,1.67,5.86,3.11,6.84
20.21492290496826,1.38,6.44,3.46,7.43
20.225226879119873,0.84,6.87,3.73,7.86
20.23714590072632,0.19,6.99,3.93,8.02
20.245779037475586,-0.66,7.21,3.91,8.22
20.255521774291992,-1.48,7.3,3.76,8.34
20.26482391357422,-2.19,7.43,3.53,8.51
20.27500295639038,-2.87,7.75,3.2,8.86
20.28716278076172,-3.45,8.22,2.84,9.35
20.295830965042114,-3.53,8.75,2.66,9.8
20.305519104003906,-3.15,9.45,2.84,10.35
20.314841985702515,-3.26,9.98,2.9,10.89
20.325087070465088,-4.26,9.88,2.48,11.04
20.337238788604736,-5.48,9.65,2.42,11.35
20.34581708908081,-6.0,9.51,2.89,11.61
20.355437755584717,-5.86,9.48,3.24,11.6
20.36487579345703,-4.89,9.75,2.82,11.26
20.375025987625122,-4.22,9.76,2.49,10.92
20.387228965759277,-4.08,9.81,2.69,10.95
20.395888805389404,-3.75,9.74,3.07,10.87
20.405526876449585,-3.19,9.4,3.39,10.48
20.414944887161255,-2.9,8.83,3.65,9.98
20.425190925598145,-2.66,8.41,3.84,9.62
20.4372398853302,-2.19,7.86,3.63,8.93
20.445966958999634,-1.59,7.32,3.28,8.17
20.45552682876587,-0.86,6.83,3.13,7.56
20.46495294570923,-0.02,6.31,2.95,6.96
20.47523307800293,0.74,5.7,2.9,6.43
20.487425804138184,1.63,5.02,2.99,6.06
20.49593210220337,2.29,4.32,2.97,5.72
20.505706787109375,2.46,3.52,2.72,5.08
20.5150089263916,2.56,2.75,2.23,4.36
20.525279998779297,2.76,2.17,1.79,3.94
20.537386894226074,3.24,1.64,1.62,3.97
20.54592990875244,3.86,1.33,1.67,4.41
20.555522918701172,4.44,1.1,1.68,4.87
20.564836978912354,5.1,0.79,1.58,5.39
20.57495403289795,5.6,0.35,1.33,5.76
20.58731508255005,5.95,-0.21,1.16,6.06
20.596069812774658,6.16,-0.8,1.13,6.31
20.605629920959473,6.06,-1.62,1.01,6.35
20.615041971206665,5.79,-2.39,0.83,6.31
20.62528085708618,5.55,-2.97,0.59,6.32
20.637419939041138,5.6,-3.65,0.21,6.68
20.646039962768555,5.54,-4.1,-0.01,6.89
20.655642986297607,5.49,-4.58,-0.04,7.14
20.6650447845459,5.12,-5.44,0.05,7.47
20.67525005340576,4.89,-6.21,0.32,7.91
20.68748903274536,5.5,-6.52,0.59,8.55
20.69598889350891,5.38,-6.89,0.48,8.75
20.705752849578857,4.48,-7.65,0.46,8.87
20.715080976486206,3.95,-8.28,0.41,9.18
20.72543692588806,3.31,-8.25,0.31,8.89
20.737462043762207,3.32,-8.09,0.04,8.74
20.746145963668823,3.97,-8.08,-0.26,9.0
20.755653858184814,3.81,-8.64,-0.63,9.46
20.764967918395996,3.95,-8.64,-0.9,9.54
20.7751407623291,3.95,-7.99,-0.98,8.96
20.787360906600952,3.89,-7.78,-1.06,8.76
20.796170949935913,4.17,-7.7,-1.33,8.85
20.805819988250732,4.06,-7.3,-1.97,8.58
20.815156936645508,3.41,-7.21,-1.91,8.2
20.82534098625183,3.46,-7.03,-1.53,7.98
20.837353944778442,3.62,-6.85,-1.17,7.83
20.846120834350586,3.48,-6.74,-1.06,7.65
20.85576295852661,3.15,-6.62,-1.29,7.44
20.865224838256836,3.08,-6.4,-1.55,7.26
20.875593900680542,3.42,-5.82,-1.91,7.01
20.88744592666626,3.78,-5.33,-2.67,7.05
20.896130084991455,3.97,-4.78,-3.35,7.05
20.905920028686523,4.54,-3.94,-3.25,6.83
20.915191888809204,4.93,-3.36,-2.89,6.62
20.9254207611084,4.44,-3.09,-2.7,6.04
20.93741798400879,3.64,-3.24,-2.39,5.42
20.946155071258545,3.36,-3.2,-1.35,4.83
20.955842971801758,3.52,-2.69,0.01,4.43
20.96518087387085,3.98,-1.86,1.04,4.51
20.975433826446533,4.36,-0.87,1.88,4.82
20.987380027770996,4.21,-0.15,2.22,4.76
20.996280908584595,4.08,0.56,1.84,4.51
21.00577187538147,4.43,1.89,1.3,4.98
21.015193939208984,3.51,1.6,0.38,3.87
21.02551507949829,2.87,1.47,-0.39,3.24
21.03754186630249,2.57,2.39,-0.51,3.54
21.046217918395996,2.55,3.37,-0.06,4.22
21.055789947509766,2.22,3.88,0.46,4.49
21.065115928649902,2.19,4.34,0.55,4.89
21.07535409927368,2.61,5.29,1.02,5.98
21.08746576309204,2.85,5.86,2.13,6.85
21.096270084381104,2.98,5.66,3.34,7.21
21.10594081878662,2.78,4.99,4.31,7.15
21.115234851837158,2.5,4.41,5.23,7.28
21.125632762908936,1.94,4.06,5.86,7.38
21.137449979782104,1.2,3.98,6.15,7.42
21.14631700515747,0.71,4.36,5.87,7.34
21.155953884124756,0.03,4.76,5.9,7.58
21.165307998657227,-0.51,4.74,5.66,7.4
21.175903797149658,-0.97,4.67,5.1,6.98
21.18728995323181,-1.72,4.69,4.62,6.8
21.196332931518555,-2.63,4.93,4.43,7.13
21.206037998199463,-3.82,5.22,4.27,7.75
21.21530294418335,-4.65,5.42,3.8,8.08
21.225507974624634,-5.02,5.72,3.11,8.22
21.23733687400818,-5.12,5.82,2.38,8.1
21.246373891830444,-4.92,6.44,2.34,8.43
21.25601887702942,-4.95,6.95,2.64,8.93
21.26534080505371,-5.33,7.04,2.78,9.25
21.275694847106934,-5.73,7.41,2.74,9.75
21.287369966506958,-5.76,8.04,2.35,10.16
21.296358108520508,-5.23,8.56,2.09,10.24
21.306083917617798,-4.62,8.78,2.37,10.2
21.315337896347046,-3.57,9.07,2.56,10.07
21.325575828552246,-2.55,8.83,2.85,9.62
21.337403774261475,-1.97,8.43,3.2,9.22
21.34644079208374,-1.61,7.96,3.65,8.9
21.35609793663025,-1.36,7.5,3.93,8.57
21.36546277999878,-1.16,6.92,3.92,8.03
21.37586498260498,-1.09,6.14,3.9,7.35
21.387419939041138,-0.56,5.58,3.96,6.86
21.396447896957397,0.34,5.1,4.12,6.56
21.40613293647766,1.13,4.53,4.08,6.2
21.415570974349976,2.11,4.37,3.58,6.03
21.426068782806396,2.89,3.76,3.4,5.83
21.437383890151978,3.5,3.08,3.24,5.67
21.446512937545776,3.76,2.3,2.85,5.24
21.45612382888794,3.59,1.4,2.39,4.53
21.4653959274292,3.61,0.49,1.8,4.06
21.47558879852295,3.8,-0.47,1.22,4.01
21.48747491836548,3.69,-1.45,1.06,4.1
21.49648690223694,3.72,-2.0,0.73,4.28
21.50606393814087,4.03,-2.42,0.21,4.7
21.515650987625122,4.41,-2.9,-0.21,5.28
21.52591609954834,4.6,-3.16,-0.1,5.58
21.537477016448975,4.48,-3.07,0.16,5.43
21.54657506942749,4.24,-3.06,0.35,5.24
21.55622386932373,3.82,-3.31,0.24,5.06
21.565515995025635,3.63,-3.62,0.07,5.12
21.575992107391357,3.65,-3.97,-0.06,5.39
21.58756995201111,3.84,-4.27,-0.39,5.75
21.5965838432312,4.29,-4.48,-0.66,6.23
21.606173038482666,4.96,-4.48,-0.53,6.7
21.61556887626648,5.53,-4.66,-0.38,7.24
21.625887870788574,5.89,-4.87,-0.08,7.64
21.637492895126343,5.85,-5.26,-0.25,7.87
21.646618843078613,5.94,-5.37,-0.34,8.01
21.6561598777771,5.77,-5.37,-0.52,7.89
21.66565489768982,5.4,-5.48,-0.75,7.73
21.676079988479614,4.92,-5.72,-0.74,7.58
21.687560081481934,4.53,-6.01,-1.12,7.6
21.696640968322754,4.6,-6.25,-1.52,7.9
21.70612907409668,4.68,-6.25,-1.22,7.9
21.7156720161438,4.73,-6.18,-0.98,7.84
21.72593879699707,4.58,-6.06,-0.7,7.62
21.737741947174072,4.28,-5.97,-0.41,7.35
21.746575832366943,4.07,-5.79,-0.1,7.07
21.75611686706543,4.07,-5.54,0.21,6.87
21.76561403274536,4.14,-5.36,0.33,6.78
21.77588701248169,4.04,-5.35,0.26,6.7
21.787604808807373,3.79,-5.3,0.03,6.51
21.79669189453125,3.49,-5.16,-0.17,6.23
21.806217908859253,3.35,-4.88,-0.29,5.92
21.815587043762207,3.45,-4.5,-0.37,5.68
21.825767040252686,3.44,-4.37,-0.39,5.57
21.837681770324707,3.37,-4.24,-0.26,5.42
21.84674096107483,3.22,-3.93,0.04,5.08
21.856282949447632,3.08,-3.45,0.38,4.64
21.865703105926514,3.16,-3.01,0.61,4.4
21.87596297264099,3.65,-2.4,0.73,4.42
21.88771891593933,4.11,-1.33,0.93,4.41
21.896761894226074,4.66,-0.63,0.98,4.8
21.906414031982422,4.82,-0.17,0.81,4.89
21.91578483581543,4.63,0.34,0.8,4.71
21.926281929016113,4.35,0.76,0.81,4.48
21.93773078918457,4.1,1.05,0.82,4.31
21.946725845336914,3.67,1.95,0.86,4.24
21.95634889602661,3.52,2.91,0.92,4.65
21.96576976776123,3.43,3.6,1.2,5.11
21.976106882095337,3.19,3.97,1.53,5.31
21.98791790008545,2.83,3.98,1.77,5.19
21.99667978286743,2.45,4.15,1.92,5.18
22.006293773651123,1.65,4.83,2.23,5.56
22.015798091888428,1.08,5.2,2.51,5.87
22.026033878326416,0.71,5.27,2.75,5.98
22.037860870361328,0.4,5.23,3.01,6.04
22.046748876571655,-0.2,5.24,3.18,6.13
22.056298971176147,-0.95,5.38,3.27,6.36
22.06568479537964,-1.7,5.25,3.36,6.46
22.075926780700684,-2.33,5.05,3.27,6.45
22.087780952453613,-3.09,5.52,3.13,7.05
22.096818923950195,-3.85,5.73,3.3,7.65
22.106457948684692,-4.06,5.37,3.21,7.45
22.115750789642334,-4.51,5.16,3.0,7.48
22.126049995422363,-4.98,5.03,2.64,7.55
22.13779592514038,-5.82,5.38,2.43,8.28
22.146843910217285,-6.12,5.83,2.31,8.76
22.156450986862183,-5.63,5.93,1.89,8.39
22.165751934051514,-5.63,6.14,1.59,8.48
22.176292896270752,-5.94,6.24,1.32,8.71
22.18781805038452,-6.51,5.99,0.65,8.87
22.19688391685486,-7.14,5.65,-0.05,9.1
22.20666790008545,-7.15,5.86,-0.38,9.25
22.215917110443115,-6.37,6.46,-0.44,9.08
22.226097106933594,-5.22,7.08,-0.07,8.79
22.237847805023193,-4.14,7.81,0.65,8.86
22.246885776519775,-3.39,8.14,1.31,8.91
22.25659990310669,-2.99,7.83,1.88,8.58
22.265857934951782,-3.16,7.84,2.39,8.78
22.27611994743347,-2.73,8.23,2.77,9.1
22.287914991378784,-1.96,7.5,2.76,8.22
22.296936988830566,-1.5,7.05,3.03,7.81
22.30662488937378,-0.97,7.06,3.02,7.73
22.315864086151123,-0.17,6.8,2.9,7.39
22.32606291770935,0.45,6.36,2.63,6.89
22.337871074676514,0.82,5.95,2.35,6.44
22.346964836120605,1.29,5.44,2.2,6.0
22.356539964675903,2.0,4.82,2.17,5.65
22.365924835205078,2.61,4.13,1.86,5.22
22.376105785369873,3.02,3.5,1.55,4.87
22.387906074523926,3.3,2.75,1.28,4.48
22.396984100341797,3.47,1.84,1.06,4.06
22.406641960144043,3.73,1.07,0.82,3.96
22.41634488105774,3.98,0.33,0.62,4.04
22.42600107192993,4.18,-0.4,0.39,4.21
22.44207191467285,4.38,-0.95,0.28,4.49
22.44695806503296,4.71,-1.37,0.15,4.9
22.45653200149536,4.91,-1.82,-0.12,5.23
22.466282844543457,5.0,-2.38,-0.28,5.54
22.475931882858276,4.95,-3.0,-0.22,5.79
22.491830825805664,4.82,-3.57,-0.1,5.99
22.4968900680542,4.87,-3.99,0.2,6.29
22.50664496421814,5.1,-4.32,0.54,6.7
22.516326904296875,5.33,-4.54,0.82,7.04
22.525985956192017,5.49,-4.77,1.04,7.34
22.541762828826904,5.53,-5.02,1.05,7.54
22.546963930130005,5.43,-5.24,0.93,7.6
22.556689977645874,5.37,-5.4,0.85,7.66
22.56635808944702,5.47,-5.57,0.76,7.84
22.57612705230713,5.55,-5.71,0.57,7.98
22.591757774353027,6.28,-5.17,0.52,8.15
22.596937894821167,6.09,-5.56,-0.07,8.24
22.606701850891113,4.9,-6.62,-0.66,8.26
22.616389989852905,3.24,-6.52,0.19,7.28
22.62601590156555,3.97,-7.16,-0.75,8.22
22.641972064971924,4.53,-6.95,-1.58,8.44
22.647078037261963,4.43,-6.37,-1.67,7.93
22.65668487548828,4.86,-5.76,-1.94,7.78
22.66634702682495,5.92,-4.21,-1.6,7.43
22.676043033599854,6.94,-2.9,-0.88,7.57
22.69171380996704,6.8,-2.51,-0.12,7.24
22.697077989578247,5.69,-2.69,0.4,6.3
22.706801891326904,4.43,-3.11,0.43,5.42
22.716468811035156,3.64,-3.49,0.37,5.05
22.72622585296631,3.38,-3.77,0.21,5.06
22.741885900497437,3.2,-4.07,-0.15,5.17
22.747305870056152,3.04,-4.27,-0.56,5.27
22.756725788116455,2.97,-4.25,-0.83,5.25
22.766408920288086,3.14,-4.06,-1.19,5.26
22.776046991348267,3.26,-3.76,-1.5,5.19
22.791554927825928,3.11,-3.58,-1.66,5.02
22.797082901000977,2.78,-3.35,-1.6,4.63
22.80678391456604,2.6,-2.97,-1.21,4.12
22.816383838653564,2.6,-2.71,-0.72,3.82
22.826154947280884,2.61,-2.48,-0.1,3.6
22.841500759124756,2.45,-2.26,0.72,3.41
22.84714388847351,2.32,-1.87,1.48,3.32
22.856806755065918,2.01,-1.49,1.88,3.12
22.866484880447388,1.5,-0.95,1.79,2.52
22.87621307373047,1.43,-0.08,1.68,2.2
22.891457080841064,1.78,0.81,1.73,2.61
22.89714479446411,2.22,1.89,1.63,3.34
22.90688705444336,2.53,3.27,1.4,4.36
22.916635990142822,2.69,4.6,1.57,5.55
22.926218032836914,3.03,5.66,1.96,6.71
22.941636085510254,2.97,6.38,2.43,7.44
22.94722890853882,2.45,6.79,3.1,7.85
22.95690393447876,1.74,7.01,3.66,8.09
22.966548919677734,1.23,7.25,3.95,8.34
22.976260900497437,0.58,7.3,4.01,8.34
22.9912748336792,-0.33,7.27,3.77,8.19
22.997225761413574,-1.13,7.21,3.27,7.99
23.00685977935791,-1.73,7.12,2.61,7.77
23.016602993011475,-2.11,6.97,2.01,7.55
23.026232957839966,-2.4,6.75,1.36,7.29
23.041428089141846,-3.2,6.25,0.55,7.04
23.04733395576477,-4.12,6.16,-0.02,7.41
23.0568528175354,-4.75,5.81,-0.35,7.51
23.066565990447998,-5.12,5.39,-0.22,7.43
23.07624101638794,-5.51,5.22,0.24,7.59
23.091364860534668,-5.7,5.32,1.01,7.86
23.097207069396973,-5.79,5.29,1.91,8.07
23.10694694519043,-5.88,5.27,2.54,8.29
23.116699934005737,-5.77,5.37,3.03,8.44
23.126242876052856,-5.56,5.47,3.45,8.52
23.141716957092285,-5.28,5.7,3.94,8.71
23.147267818450928,-4.9,6.16,4.17,8.9
23.15701198577881,-4.35,6.64,4.14,8.95
23.16666603088379,-3.73,7.02,4.0,8.89
23.176340103149414,-3.23,7.28,3.65,8.76
23.191608905792236,-2.89,7.3,3.22,8.48
23.197414875030518,-2.63,7.22,3.07,8.27
23.20698881149292,-2.18,6.98,3.05,7.92
23.216683864593506,-1.7,6.69,3.04,7.54
23.226276874542236,-1.24,6.49,3.04,7.27
23.24143886566162,-0.63,6.19,2.99,6.9
23.24738597869873,-0.12,5.72,2.89,6.4
23.2569899559021,0.39,5.1,2.68,5.77
23.266715049743652,0.77,4.33,2.38,5.0
23.2764310836792,1.08,3.62,2.28,4.41
23.291244983673096,1.59,3.03,2.23,4.08
23.297450065612793,2.17,2.47,2.12,3.91
23.307029962539673,2.57,1.9,2.05,3.79
23.31658697128296,2.92,1.41,2.06,3.84
23.326361894607544,3.28,0.98,1.99,3.95
23.341370105743408,3.67,0.56,1.84,4.14
23.347383975982666,4.0,0.04,1.74,4.36
23.357006072998047,4.27,-0.54,1.57,4.58
23.36666488647461,4.46,-0.91,1.36,4.75
23.376412868499756,4.83,-1.22,1.08,5.09
23.39098596572876,5.2,-1.61,0.69,5.48
23.39738392829895,5.28,-2.04,0.4,5.67
23.407023906707764,5.38,-2.48,0.19,5.92
23.41663694381714,5.51,-3.09,-0.03,6.31
23.42642307281494,5.55,-3.69,-0.18,6.66
23.44111204147339,5.55,-4.21,-0.36,6.97
23.44751787185669,5.39,-4.74,-0.58,7.2
23.457145929336548,5.31,-5.1,-0.71,7.39
23.466588973999023,5.25,-5.39,-0.8,7.56
23.47648286819458,5.09,-5.76,-1.1,7.76
23.49095106124878,5.03,-5.92,-1.47,7.9
23.497479915618896,5.06,-5.96,-1.81,8.02
23.507187843322754,4.95,-6.03,-2.06,8.06
23.516695976257324,4.83,-6.04,-2.21,8.04
23.526270866394043,4.83,-6.0,-2.21,8.01
23.54102087020874,4.84,-5.96,-1.97,7.92
23.547544956207275,4.76,-5.98,-1.73,7.83
23.557252883911133,4.75,-5.8,-1.33,7.61
23.56670904159546,4.78,-5.63,-0.88,7.43
23.576600074768066,4.73,-5.57,-0.51,7.32
23.590850830078125,4.57,-5.43,-0.13,7.09
23.597517013549805,4.52,-5.26,0.15,6.93
23.607152938842773,4.6,-5.18,0.24,6.93
23.616372108459473,4.61,-5.18,0.2,6.93
23.626455783843994,4.41,-5.12,0.04,6.75
23.64093780517578,4.07,-5.01,-0.13,6.45
23.647587776184082,3.87,-4.85,-0.24,6.2
23.657177925109863,3.95,-4.64,-0.26,6.09
23.666593074798584,4.15,-4.32,-0.23,5.99
23.6765079498291,4.22,-4.08,-0.21,5.87
23.690850973129272,4.0,-3.91,-0.06,5.59
23.697640895843506,3.74,-3.68,0.17,5.24
23.70728302001953,3.69,-3.29,0.39,4.95
23.71660280227661,3.74,-2.82,0.61,4.72
23.72656798362732,4.02,-2.2,0.72,4.63
23.7408549785614,4.21,-1.61,0.76,4.57
23.747545957565308,4.13,-1.04,0.67,4.31
23.757261991500854,4.09,-0.43,0.48,4.14
23.766533851623535,4.04,0.1,0.22,4.04
23.776659965515137,3.8,0.7,-0.17,3.86
23.79079580307007,3.64,1.54,-0.44,3.97
23.797616958618164,3.66,2.38,-0.39,4.38
23.80727481842041,3.67,2.97,-0.12,4.72
23.816611766815186,3.44,3.35,0.2,4.8
23.8266499042511,3.17,3.75,0.58,4.94
23.84072494506836,2.72,4.06,1.03,4.99
23.847694873809814,2.24,4.35,1.49,5.11
23.85724687576294,1.66,4.58,1.79,5.19
23.866684913635254,0.89,4.8,2.01,5.27
23.87662982940674,0.22,5.13,2.24,5.6
23.890707969665527,-0.15,5.45,2.24,5.89
23.89777898788452,-0.59,5.83,2.25,6.27
23.90736484527588,-1.43,5.64,2.2,6.22
23.916677951812744,-2.26,5.57,2.26,6.42
23.926711082458496,-2.58,6.2,2.53,7.17
23.940706968307495,-2.68,6.51,2.59,7.5
23.947734832763672,-3.39,6.61,2.93,7.98
23.957386016845703,-4.22,6.82,2.94,8.54
23.966705799102783,-4.64,6.87,3.08,8.84
23.9766628742218,-4.61,8.4,3.55,10.21
23.990758895874023,-4.86,8.27,2.68,9.95
23.99781894683838,-5.21,8.5,2.09,10.18
24.007343769073486,-5.68,8.6,1.26,10.38
24.016709804534912,-5.82,8.39,0.72,10.23
24.026736974716187,-6.03,7.84,0.65,9.91
24.040631771087646,-5.58,8.02,0.76,9.79
24.04777479171753,-4.89,7.77,0.85,9.21
24.057390928268433,-4.62,7.6,1.33,8.99
24.066750049591064,-4.35,7.56,1.99,8.94
24.076900005340576,-3.89,7.46,2.42,8.75
24.091710090637207,-3.66,7.16,2.54,8.43
24.097816944122314,-3.58,6.67,2.51,7.97
24.10754680633545,-3.18,6.44,2.61,7.64
24.11682891845703,-2.53,6.31,2.37,7.19
24.12671709060669,-1.95,5.88,1.95,6.49
24.14070987701416,-1.35,5.61,1.79,6.04
24.148197889328003,-1.03,4.94,1.69,5.32
24.1574809551239,-0.81,4.27,1.56,4.61
24.166789054870605,-0.37,3.85,1.36,4.09
24.176981925964355,0.18,3.4,1.39,3.67
24.19103193283081,0.78,2.91,1.52,3.37
24.198166847229004,1.44,2.46,1.54,3.23
24.207531929016113,2.31,2.23,1.53,3.55
24.216808795928955,3.12,2.11,1.46,4.03
24.2268648147583,3.55,1.76,1.13,4.12
24.240593910217285,3.5,1.34,0.95,3.86
24.248307943344116,3.52,1.03,0.92,3.78
24.25753688812256,3.67,0.57,0.77,3.79
24.26673698425293,3.74,0.07,0.69,3.8
24.27676486968994,3.71,-0.38,0.81,3.81
24.290388107299805,3.82,-0.74,0.96,4.0
24.298243045806885,4.13,-1.08,1.06,4.39
24.307480812072754,4.53,-1.37,1.11,4.86
24.316744804382324,4.99,-1.7,1.01,5.36
24.326908111572266,5.09,-2.23,0.93,5.63
24.340671062469482,4.88,-2.87,0.82,5.72
24.348285913467407,4.59,-3.51,0.71,5.82
24.357524871826172,4.33,-4.05,0.55,5.95
24.36697793006897,4.23,-4.39,0.42,6.11
24.3769109249115,4.35,-4.64,0.23,6.36
24.390623092651367,4.53,-4.88,0.06,6.65
24.398347854614258,4.64,-5.06,-0.08,6.86
24.40769100189209,4.65,-5.28,-0.26,7.04
24.416923999786377,4.75,-5.45,-0.48,7.24
24.426976919174194,4.81,-5.73,-0.81,7.52
24.44066286087036,4.86,-5.92,-1.04,7.72
24.44832491874695,5.0,-6.0,-1.15,7.89
24.457636833190918,5.02,-6.17,-1.21,8.04
24.467061042785645,4.83,-6.33,-1.16,8.04
24.476972103118896,4.64,-6.39,-1.1,7.97
24.490975856781006,4.49,-6.49,-1.16,7.97
24.49826192855835,4.48,-6.48,-1.13,7.95
24.507678031921387,4.59,-6.33,-1.2,7.91
24.517144918441772,4.61,-6.23,-1.29,7.85
24.527057886123657,4.58,-6.21,-1.36,7.83
24.540791988372803,4.53,-6.08,-1.47,7.72
24.548420906066895,4.35,-6.01,-1.59,7.58
24.55758285522461,3.99,-5.96,-1.78,7.38
24.567173957824707,3.43,-5.77,-1.7,6.92
24.576902866363525,3.46,-5.67,-2.09,6.96
24.5907199382782,3.39,-5.54,-2.35,6.9
24.59843397140503,3.45,-5.01,-2.28,6.49
24.6076979637146,3.59,-4.42,-1.98,6.02
24.617187976837158,3.9,-3.85,-1.46,5.67
24.627065896987915,4.18,-3.3,-0.82,5.38
24.640647888183594,4.38,-2.58,-0.21,5.08
24.648451805114746,4.58,-1.63,0.43,4.88
24.65773582458496,4.63,-0.71,1.05,4.8
24.667163848876953,4.47,-0.07,1.66,4.76
24.67707586288452,4.24,0.6,2.03,4.73
24.69055986404419,4.09,1.44,2.25,4.88
24.69851779937744,4.28,2.06,2.53,5.38
24.707774877548218,4.36,2.66,3.01,5.92
24.71723508834839,4.19,3.17,3.49,6.3
24.727113962173462,3.85,3.56,3.99,6.58
24.740561962127686,3.28,3.78,4.46,6.7
24.748456954956055,2.71,4.05,4.77,6.81
24.757951974868774,2.34,4.44,4.87,6.99
24.767262935638428,2.13,4.72,4.77,7.04
24.777143955230713,2.05,4.83,4.53,6.93
24.79054093360901,1.89,4.8,4.21,6.65
24.798558950424194,1.47,4.64,3.46,5.97
24.807761907577515,0.79,4.54,2.34,5.16
24.817184925079346,0.2,4.55,1.09,4.68
24.82722806930542,-0.3,4.52,0.1,4.53
24.840481758117676,-1.0,4.4,-0.65,4.55
24.84867000579834,-1.76,4.47,-1.31,4.97
24.857762813568115,-2.87,3.43,-2.02,4.9
24.86728286743164,-4.11,2.8,-1.88,5.31
24.877134799957275,-4.11,4.24,-0.65,5.94
24.890495777130127,-3.63,4.54,-0.13,5.81
24.89864492416382,-3.52,4.43,0.77,5.71
24.907931804656982,-3.73,5.39,1.97,6.84
24.91730499267578,-4.42,6.11,2.33,7.89
24.927371978759766,-5.05,6.33,2.38,8.44
24.94055700302124,-5.65,5.99,2.69,8.66
24.948668003082275,-5.84,6.86,3.42,9.63
24.957804918289185,-6.07,7.37,3.9,10.31
24.967286109924316,-5.94,7.26,3.99,10.19
24.9772310256958,-5.67,7.63,4.62,10.56
24.990345001220703,-5.36,8.07,4.82,10.82
24.99864101409912,-4.76,8.02,4.68,10.43
25.007824897766113,-4.17,7.93,4.72,10.12
25.017276763916016,-3.77,7.85,5.02,10.05
25.02721095085144,-3.52,7.51,4.82,9.59
25.04035997390747,-2.78,7.66,4.18,9.15
25.048655033111572,-2.35,6.92,3.59,8.14
25.057790756225586,-2.63,6.38,3.2,7.6
25.067276000976562,-2.0,5.75,2.65,6.63
25.07731795310974,-1.47,5.2,2.36,5.89
25.090481758117676,-0.8,4.65,2.2,5.2
25.098721981048584,-0.29,4.09,2.04,4.57
25.107919931411743,0.09,3.67,1.87,4.11
25.11743688583374,0.43,3.13,1.62,3.55
25.12732696533203,0.71,2.64,1.75,3.24
25.139997959136963,1.15,2.26,2.03,3.24
25.14869976043701,1.78,1.96,1.98,3.3
25.158042907714844,2.32,1.79,1.79,3.43
25.16735076904297,2.75,1.51,1.54,3.49
25.177313804626465,3.14,1.11,1.16,3.52
25.190435886383057,3.58,0.74,0.86,3.75
25.198784828186035,3.98,0.36,0.68,4.05
25.208088874816895,4.33,-0.01,0.48,4.35
25.217408895492554,4.59,-0.42,0.24,4.61
25.227421760559082,4.77,-0.94,0.16,4.86
25.240577936172485,4.9,-1.55,0.32,5.14
25.24884605407715,5.13,-2.18,0.39,5.58
25.25802993774414,5.31,-2.91,0.27,6.06
25.26746892929077,5.27,-3.54,0.15,6.35
25.277379989624023,5.14,-4.07,-0.1,6.55
25.290098905563354,5.04,-4.72,-0.38,6.91
25.298818111419678,4.85,-5.2,-0.55,7.13
25.308064937591553,4.99,-5.72,-0.88,7.64
25.31744909286499,5.18,-5.88,-1.23,7.93
25.32744598388672,5.28,-6.06,-1.59,8.19
25.339972019195557,5.44,-6.16,-1.82,8.41
25.348859786987305,5.22,-6.49,-1.81,8.52
25.35810899734497,4.99,-6.45,-1.8,8.35
25.367501974105835,5.66,-5.56,-1.43,8.06
25.37747287750244,4.96,-6.37,-1.32,8.18
25.3901309967041,4.87,-6.41,-1.42,8.17
25.39893388748169,5.11,-6.53,-0.71,8.32
25.4081449508667,4.74,-6.88,-0.23,8.35
25.417513847351074,4.07,-7.1,-0.02,8.18
25.42750597000122,3.73,-6.92,0.36,7.86
25.44008207321167,4.67,-5.74,0.65,7.42
25.448880910873413,6.36,-3.64,1.18,7.42
25.458162784576416,7.47,-2.14,1.37,7.89
25.4675350189209,7.2,-1.65,0.98,7.45
25.477500915527344,5.98,-1.59,0.32,6.19
25.489990949630737,4.4,-2.05,-0.46,4.87
25.498992919921875,3.25,-2.71,-0.97,4.34
25.508124828338623,2.77,-3.37,-1.18,4.51
25.51751708984375,2.59,-4.01,-1.27,4.93
25.5277738571167,2.44,-4.49,-1.37,5.29
25.53990077972412,2.31,-4.58,-1.37,5.3
25.548916816711426,2.42,-4.28,-1.36,5.1
25.558231830596924,2.97,-3.81,-1.26,4.99
25.567709922790527,3.46,-3.33,-1.13,4.93
25.577509880065918,3.7,-2.86,-1.07,4.79
25.589972019195557,3.68,-2.42,-1.19,4.56
25.59893798828125,3.31,-1.94,-1.34,4.06
25.60831093788147,2.96,-1.51,-1.16,3.51
25.61762809753418,2.98,-1.02,-0.62,3.21
25.627596855163574,3.26,-0.49,0.12,3.29
25.639892101287842,3.36,0.16,0.83,3.46
25.648998975753784,3.13,0.72,1.62,3.59
25.658264875411987,3.02,1.4,2.38,4.09
25.66770887374878,3.0,2.22,2.91,4.73
25.677576065063477,3.07,3.22,3.06,5.39
25.68976593017578,2.85,4.34,3.31,6.15
25.699100971221924,1.8,4.77,3.51,6.18
25.70826292037964,0.58,5.17,3.21,6.11
25.717700958251953,-0.59,5.62,2.55,6.19
25.727637767791748,-1.42,6.52,2.11,6.99
25.739890098571777,-1.99,7.62,1.56,8.02
25.748965978622437,-2.69,7.98,0.78,8.45
25.758354902267456,-3.28,8.64,0.96,9.29
25.76773691177368,-3.34,9.12,1.42,9.81
25.77765989303589,-3.6,9.06,2.04,9.96
25.789889812469482,-4.04,8.99,2.79,10.24
25.799007892608643,-4.35,9.26,3.56,10.83
25.808329105377197,-4.93,8.93,4.02,10.96
25.817708015441895,-6.01,7.95,4.13,10.78
25.827757835388184,-6.64,7.94,4.55,11.3
25.839749813079834,-6.63,7.86,4.84,11.36
25.84913396835327,-6.56,7.5,4.35,10.87
25.85838508605957,-6.11,7.58,3.78,10.44
25.867724895477295,-5.44,7.76,3.0,9.94
25.877625942230225,-4.86,7.64,2.34,9.35
25.889867782592773,-4.43,7.57,1.98,8.99
25.89917278289795,-4.21,7.28,1.78,8.59
25.908352851867676,-3.72,7.26,1.64,8.32
25.91774082183838,-3.43,6.66,1.32,7.6
25.92771291732788,-3.23,6.56,1.51,7.46
25.93964695930481,-2.59,6.45,1.64,7.14
25.949265003204346,-1.63,6.27,1.66,6.68
25.95836591720581,-0.66,6.01,1.8,6.3
25.96783685684204,0.37,5.67,2.22,6.1
25.977699756622314,1.07,5.21,2.48,5.86
25.989771842956543,1.34,4.55,2.17,5.21
25.999148845672607,1.36,3.92,1.82,4.53
26.00841188430786,1.49,3.28,1.7,3.98
26.01793909072876,1.69,2.66,1.53,3.5
26.02781105041504,1.89,2.08,1.4,3.13
26.039655923843384,2.0,1.69,1.48,3.0
26.04926109313965,2.05,1.31,1.57,2.89
26.058368921279907,2.06,0.83,1.45,2.65
26.06779384613037,2.18,0.44,1.17,2.51
26.07780694961548,2.54,0.2,0.92,2.7
26.08989691734314,3.18,0.24,0.96,3.33
26.099281787872314,3.74,0.21,1.29,3.96
26.10871982574463,3.78,-0.32,1.66,4.14
26.117883920669556,4.67,-0.57,1.41,4.91
26.12790298461914,4.91,-1.11,1.11,5.15
26.139713764190674,4.97,-1.87,0.74,5.36
26.14933681488037,4.82,-2.78,0.36,5.57
26.15847110748291,4.97,-3.54,-0.05,6.1
26.167948961257935,5.13,-4.05,-0.55,6.55
26.17784595489502,5.17,-4.3,-0.88,6.78
26.189868927001953,5.09,-4.68,-1.18,7.01
26.19928503036499,4.71,-5.08,-1.31,7.05
26.2085280418396,4.0,-5.24,-1.13,6.68
26.21794605255127,3.36,-5.41,-0.78,6.41
26.227972984313965,3.05,-5.48,-0.48,6.28
26.23981809616089,3.1,-5.43,-0.27,6.25
26.249375820159912,3.28,-5.52,-0.25,6.42
26.258596897125244,3.47,-5.76,-0.45,6.73
26.267966985702515,3.71,-5.91,-0.67,7.01
26.278019905090332,3.75,-6.07,-0.89,7.19
26.289828777313232,3.88,-6.07,-1.11,7.28
26.299277782440186,4.03,-5.87,-1.3,7.23
26.308571815490723,3.94,-5.75,-1.29,7.08
26.31798505783081,3.82,-5.98,-1.36,7.22
26.32795476913452,4.01,-6.27,-1.48,7.58
26.339828968048096,4.2,-6.43,-1.65,7.85
26.349390983581543,4.13,-6.5,-1.93,7.93
26.358558893203735,4.03,-6.41,-2.22,7.89
26.368104934692383,3.76,-6.16,-2.3,7.57
26.37791395187378,3.19,-5.9,-2.1,7.02
26.390050888061523,2.71,-5.39,-1.93,6.33
26.39919900894165,2.44,-4.78,-1.93,5.7
26.40863800048828,2.29,-4.32,-1.89,5.24
26.41799306869507,2.32,-4.0,-1.77,4.95
26.427960872650146,2.49,-3.75,-1.83,4.85
26.43978977203369,2.72,-3.37,-1.91,4.73
26.449315071105957,2.85,-2.91,-2.04,4.55
26.45851707458496,2.78,-2.62,-2.16,4.38
26.467997074127197,2.39,-2.51,-2.07,4.03
26.477920055389404,2.44,-2.07,-1.96,3.75
26.490062952041626,2.98,-1.53,-1.89,3.84
26.49927592277527,3.83,-1.33,-1.74,4.41
26.508641958236694,4.33,-1.5,-1.27,4.75
26.518070936203003,4.47,-1.29,-0.61,4.69
26.528018951416016,4.58,-0.52,0.25,4.61
26.53989291191101,4.3,0.09,1.02,4.42
26.54920792579651,3.73,0.55,1.35,4.0
26.558648109436035,2.85,0.91,1.63,3.4
26.56806492805481,2.34,1.04,2.01,3.25
26.578046798706055,2.2,1.41,2.2,3.41
26.590073108673096,2.3,1.83,2.29,3.72
26.599085807800293,2.28,2.03,2.58,3.99
26.608633041381836,1.86,2.02,2.78,3.9
26.618014812469482,1.51,2.19,2.79,3.85
26.628060817718506,1.26,2.62,2.96,4.14
26.639989852905273,1.26,3.08,3.1,4.54
26.649089813232422,1.58,3.66,3.05,5.01
26.65878677368164,1.75,4.02,2.88,5.24
26.668137073516846,1.24,3.86,2.75,4.89
26.678184986114502,0.12,3.63,2.61,4.47
26.690279006958008,-1.19,3.4,2.41,4.33
26.699115991592407,-2.05,3.02,2.17,4.24
26.708813905715942,-2.8,2.88,2.1,4.53
26.718174934387207,-3.59,3.07,2.24,5.22
26.728266954421997,-4.28,3.34,2.27,5.88
26.740176916122437,-4.69,3.81,2.4,6.5
26.749111890792847,-4.48,4.44,2.51,6.78
26.75885796546936,-4.08,5.14,2.68,7.08
26.768356800079346,-3.49,5.95,2.89,7.47
26.778191089630127,-3.29,6.53,3.17,7.96
26.790277004241943,-3.74,6.83,3.67,8.6
26.799222946166992,-4.93,6.92,4.65,9.68
26.808993816375732,-6.0,7.07,5.85,10.96
26.81819200515747,-6.17,7.14,6.71,11.57
26.828211784362793,-5.16,7.16,6.65,11.05
26.840352058410645,-3.61,7.02,5.93,9.87
26.849152088165283,-2.58,7.14,5.49,9.36
26.858860969543457,-1.48,7.1,5.34,9.0
26.86826491355896,-0.95,6.7,5.44,8.68
26.8782057762146,-1.03,5.87,5.56,8.15
26.890286922454834,-1.17,5.34,5.51,7.76
26.89923095703125,-1.18,5.08,5.21,7.37
26.90883779525757,-1.02,4.69,4.81,6.79
26.918277978897095,-0.71,4.48,4.41,6.32
26.928322792053223,-0.24,3.96,3.68,5.41
26.940294981002808,-0.09,3.49,2.82,4.48
26.94923210144043,0.25,3.03,2.32,3.82
26.959089756011963,0.59,3.08,2.05,3.74
26.96827793121338,1.2,2.91,1.97,3.71
26.97825288772583,1.59,2.27,1.8,3.3
26.990351915359497,1.76,1.3,1.36,2.57
26.99922275543213,1.5,0.64,1.02,1.92
27.008826971054077,1.23,0.36,0.99,1.61
27.018359899520874,1.39,-0.03,0.96,1.68
27.028405904769897,1.48,-0.5,0.82,1.76
27.04037380218506,1.64,-0.84,0.7,1.97
27.04934787750244,1.91,-1.07,0.56,2.25
27.058976888656616,2.26,-1.17,0.48,2.58
27.068408012390137,2.57,-1.13,0.72,2.89
27.078303813934326,2.96,-1.31,0.9,3.35
27.090365886688232,3.56,-1.77,0.78,4.05
27.09935998916626,3.96,-2.2,0.3,4.54
27.10901975631714,4.02,-2.76,-0.45,4.89
27.118445873260498,4.06,-3.27,-1.13,5.33
27.128408908843994,4.0,-3.53,-1.51,5.54
27.14031195640564,3.82,-3.64,-1.54,5.49
27.149374961853027,3.62,-3.84,-1.57,5.5
27.15910005569458,3.54,-3.9,-1.65,5.51
27.168373107910156,3.28,-3.8,-1.83,5.34
27.178411960601807,3.01,-3.71,-1.87,5.13
27.19039797782898,3.06,-3.65,-1.88,5.12
27.199347019195557,3.09,-3.77,-2.01,5.27
27.209176063537598,3.15,-3.89,-2.19,5.46
27.218285083770752,3.15,-3.76,-2.08,5.32
27.228441953659058,3.11,-3.69,-2.07,5.25
27.240399837493896,3.19,-3.77,-2.19,5.4
27.249444007873535,3.21,-3.67,-2.16,5.33
27.259187936782837,3.07,-3.52,-2.03,5.09
27.26846408843994,2.76,-3.46,-1.95,4.83
27.27850890159607,2.62,-3.44,-2.01,4.76
27.29049587249756,2.81,-3.36,-2.12,4.86
27.2995548248291,3.0,-3.47,-2.17,5.07
27.30904793739319,3.15,-3.63,-2.23,5.29
27.318472862243652,3.11,-3.54,-2.32,5.25
27.328442096710205,2.69,-3.38,-2.25,4.87
27.340388774871826,2.24,-3.3,-2.17,4.54
27.349562883377075,2.1,-3.15,-2.28,4.41
27.35918688774109,1.88,-3.1,-2.48,4.39
27.36853790283203,1.72,-3.19,-2.56,4.43
27.37847590446472,1.89,-3.07,-2.49,4.38
27.39048194885254,2.26,-2.87,-2.34,4.33
27.399563789367676,2.4,-2.85,-2.32,4.38
27.409138917922974,2.24,-2.7,-2.34,4.21
27.418604850769043,2.06,-2.53,-2.42,4.06
27.42855191230774,1.89,-2.55,-2.48,4.02
27.440460920333862,1.55,-2.45,-2.57,3.87
27.449695110321045,1.34,-2.24,-2.49,3.6
27.459261894226074,1.78,-1.81,-2.06,3.26
27.46861982345581,2.23,-1.51,-1.58,3.12
27.4785737991333,2.35,-1.48,-1.24,3.04
27.490550994873047,2.41,-1.37,-0.94,2.92
27.499713897705078,2.56,-1.24,-0.49,2.88
27.50919008255005,2.62,-1.21,0.21,2.89
27.518569946289062,2.77,-1.18,0.94,3.15
27.528616905212402,3.14,-1.03,1.29,3.54
27.540591955184937,3.39,-1.18,0.99,3.72
27.549778938293457,2.81,-0.73,1.0,3.07
27.559326887130737,1.71,-0.11,0.94,1.95
27.56859588623047,0.89,0.27,0.73,1.18
27.57864499092102,0.45,0.44,0.7,0.94
27.590563774108887,0.53,0.25,0.41,0.71
27.59978199005127,0.62,0.11,0.06,0.63
27.60927391052246,0.65,0.39,0.39,0.85
27.618706941604614,0.71,0.83,1.17,1.6
27.635121822357178,0.38,1.08,1.9,2.21
27.640631914138794,-0.17,1.49,2.37,2.8
27.649841785430908,-0.22,2.07,2.5,3.25
27.659406900405884,-0.21,2.72,2.61,3.77
27.6686909198761,-0.57,3.04,2.96,4.28
27.685282945632935,-0.7,3.05,3.25,4.51
27.690733909606934,-0.63,3.08,3.63,4.8
27.69977903366089,-0.56,3.18,4.03,5.16
27.70940399169922,-0.92,3.29,4.27,5.46
27.718753814697266,-1.44,3.04,3.92,5.16
27.73519277572632,-2.06,2.73,3.89,5.17
27.740609884262085,-2.61,2.58,4.06,5.47
27.749845027923584,-2.86,2.73,4.14,5.72
27.759469985961914,-2.26,2.97,4.42,5.78
27.7687931060791,-1.29,3.11,4.54,5.65
27.78526782989502,-0.75,3.15,4.34,5.41
27.790746927261353,-1.25,3.34,4.18,5.49
27.799861907958984,-2.07,3.11,3.75,5.29
27.80936288833618,-3.01,2.52,3.45,5.22
27.81879997253418,-3.41,1.73,2.63,4.64
27.835222959518433,-3.76,1.47,2.03,4.51
27.840718984603882,-4.13,1.76,2.26,5.02
27.849956035614014,-4.03,1.96,2.55,5.15
27.859467029571533,-3.61,1.76,2.39,4.67
27.868746757507324,-3.04,1.63,2.21,4.09
27.88544988632202,-2.51,1.69,2.44,3.88
27.89080286026001,-2.05,1.75,2.79,3.87
27.899789810180664,-1.81,1.81,2.81,3.8
27.909467935562134,-1.73,1.84,2.9,3.84
27.918869972229004,-1.68,2.08,3.23,4.19
27.935224056243896,-1.9,2.28,3.62,4.68
27.940725803375244,-2.01,2.36,3.56,4.72
27.949793815612793,-2.05,2.4,3.33,4.58
27.95952796936035,-1.89,2.63,3.24,4.58
27.968842029571533,-1.6,3.04,3.49,4.89
27.985151767730713,-0.79,3.69,3.86,5.39
27.990787982940674,-0.15,4.14,3.82,5.63
27.999921798706055,0.09,4.25,3.41,5.44
28.009368896484375,0.46,4.16,2.89,5.08
28.018824100494385,0.35,4.36,2.56,5.06
28.035521984100342,0.34,4.27,2.03,4.74
28.040732860565186,0.65,3.94,1.37,4.22
28.0498948097229,1.22,3.45,1.12,3.82
28.059476852416992,1.88,3.48,1.05,4.09
28.068912982940674,2.55,3.14,0.69,4.1
28.085453033447266,2.85,2.42,0.15,3.74
28.090928077697754,2.76,1.49,-0.41,3.16
28.0999538898468,2.41,0.55,-0.77,2.58
28.1095929145813,2.23,-0.09,-1.29,2.57
28.118988037109375,2.28,-0.99,-1.56,2.93
28.135214805603027,2.58,-1.76,-1.42,3.43
28.14086389541626,2.88,-2.41,-1.23,3.95
28.150086879730225,3.22,-2.97,-1.11,4.51
28.159586906433105,3.46,-3.33,-1.01,4.9
28.168899059295654,3.63,-3.63,-1.05,5.23
28.185258865356445,3.59,-3.69,-1.08,5.26
28.190932989120483,3.45,-3.69,-0.93,5.13
28.199995040893555,3.54,-3.83,-0.91,5.29
28.209599018096924,3.91,-4.01,-1.16,5.71
28.218941926956177,4.03,-4.22,-1.2,5.95
28.23540997505188,3.76,-4.36,-1.19,5.87
28.240823984146118,3.58,-4.31,-1.14,5.71
28.250082969665527,3.51,-4.17,-0.96,5.53
28.259697914123535,3.58,-4.14,-0.93,5.55
28.26903200149536,3.68,-4.18,-1.08,5.67
28.28556776046753,3.63,-4.1,-1.08,5.58
28.291164875030518,3.73,-3.99,-0.93,5.54
28.300028800964355,3.85,-3.78,-0.75,5.44
28.30974292755127,3.66,-3.6,-0.66,5.17
28.31907081604004,3.4,-3.64,-0.86,5.05
28.335455894470215,3.15,-3.62,-0.99,4.89
28.34093689918518,2.88,-3.55,-1.08,4.69
28.35007095336914,2.6,-3.48,-1.27,4.52
28.359741926193237,2.35,-3.4,-1.47,4.38
28.369060039520264,2.25,-3.17,-1.59,4.19
28.38533878326416,2.24,-2.8,-1.53,3.89
28.391105890274048,2.31,-2.43,-1.52,3.68
28.400085926055908,2.2,-2.22,-1.54,3.48
28.409734964370728,1.83,-2.1,-1.51,3.16
28.419151782989502,1.47,-2.13,-1.45,2.96
28.435423851013184,1.27,-2.12,-1.19,2.74
28.440974950790405,1.32,-1.9,-0.69,2.41
28.45008397102356,1.83,-1.53,-0.23,2.39
28.459819793701172,2.36,-1.2,0.12,2.65
28.46910285949707,2.49,-1.07,0.54,2.76
28.48536205291748,2.19,-1.01,0.65,2.49
28.4911208152771,1.63,-0.9,0.38,1.9
28.500173091888428,1.12,-0.8,0.12,1.38
28.50974702835083,0.77,-0.63,-0.15,1.0
28.5191707611084,0.39,-0.42,-0.25,0.62
28.53550100326538,0.32,-0.31,-0.31,0.54
28.541053771972656,0.57,-0.04,-0.39,0.69
28.55018901824951,0.82,0.33,-0.35,0.95
28.559796810150146,0.94,0.71,-0.41,1.24
28.569161891937256,1.04,0.92,-0.53,1.48
28.58556294441223,1.0,0.91,-0.52,1.44
28.591202974319458,0.63,0.74,-0.36,1.03
28.600307941436768,0.33,0.8,-0.28,0.9
28.609850883483887,-0.2,0.98,-0.17,1.01
28.619235038757324,-0.36,1.09,-0.06,1.14
28.63591194152832,-0.33,1.04,0.3,1.13
28.641121864318848,-0.46,1.02,0.56,1.25
28.65028190612793,-0.47,0.97,0.63,1.24
28.659896850585938,-0.51,1.01,0.81,1.39
28.669217109680176,-0.68,0.96,1.1,1.61
28.685664892196655,-0.94,1.06,1.29,1.91
28.69121503829956,-1.14,1.45,1.45,2.34
28.700276851654053,-1.05,1.68,1.62,2.55
28.709861755371094,-1.37,2.04,1.69,2.98
28.71917486190796,-1.53,2.05,1.69,3.06
28.73540997505188,-1.64,2.02,1.53,3.01
28.741156101226807,-1.97,1.9,1.36,3.05
28.750307083129883,-2.01,1.94,1.41,3.12
28.75987696647644,-1.91,2.14,1.69,3.32
28.769237995147705,-2.09,2.41,1.86,3.69
28.786034107208252,-2.18,2.54,2.01,3.9
28.792171955108643,-1.99,2.65,2.17,3.96
28.800568103790283,-1.9,2.7,2.47,4.12
28.810147762298584,-1.81,2.59,2.51,4.03
