time,ax,ay,az,atotal
0.01813507080078125,0.68,-0.06,0.53,0.86
0.018975019454956055,0.35,0.02,0.45,0.57
0.023344039916992188,0.06,0.07,0.26,0.27
0.03360414505004883,-0.14,0.04,0.14,0.2
0.04288482666015625,-0.25,-0.05,0.08,0.26
0.05294299125671387,-0.28,-0.08,-0.02,0.29
0.066680908203125,-0.21,-0.06,0.11,0.24
0.07376909255981445,-0.08,-0.2,0.18,0.28
0.08425188064575195,0.16,-0.38,0.21,0.46
0.09413695335388184,0.52,-0.3,0.15,0.61
0.10499191284179688,0.82,-0.43,0.08,0.92
0.1201319694519043,0.95,-0.59,0.2,1.13
0.12385797500610352,0.83,-0.37,0.18,0.92
0.13385009765625,0.15,-0.46,0.1,0.49
0.1448988914489746,-0.45,-0.35,0.12,0.58
0.1549510955810547,-0.61,-0.38,-0.01,0.71
0.16971898078918457,-0.24,-0.46,-0.1,0.52
0.1739788055419922,0.27,-0.48,-0.23,0.59
0.18526601791381836,0.38,-0.38,-0.24,0.58
0.1941819190979004,0.03,-0.53,0.19,0.56
0.20420002937316895,-0.25,-0.54,0.64,0.87
0.2185831069946289,-0.2,-0.58,0.82,1.02
0.22424697875976562,0.07,-0.47,0.94,1.05
0.23417282104492188,0.18,-0.29,0.79,0.86
0.24412894248962402,0.26,-0.33,0.22,0.47
0.2539799213409424,0.21,-0.3,-0.06,0.37
0.2700190544128418,0.26,-0.12,-0.17,0.33
0.2738649845123291,0.22,-0.17,-0.37,0.46
0.2845940589904785,0.07,-0.14,-0.36,0.39
0.29445314407348633,0.02,0.12,-0.35,0.37
0.30453991889953613,-0.33,-0.1,-0.35,0.49
0.31963014602661133,-0.7,0.09,-0.23,0.74
0.3241438865661621,-0.46,0.22,-0.39,0.64
0.33452892303466797,-0.7,0.3,-0.83,1.12
0.3444938659667969,-0.76,0.51,-0.65,1.12
0.35462093353271484,-0.4,0.6,-0.69,0.99
0.3690040111541748,-0.08,0.56,-0.6,0.82
0.37394285202026367,0.09,0.34,-0.54,0.64
0.3839888572692871,0.21,0.17,-0.44,0.51
0.3938720226287842,0.04,0.08,-0.37,0.38
0.4044771194458008,0.15,-0.09,-0.38,0.41
0.4198179244995117,0.36,-0.34,-0.24,0.55
0.4238910675048828,0.38,-0.41,-0.04,0.56
0.43436503410339355,0.2,-0.42,0.41,0.62
0.4445159435272217,0.01,-0.53,0.63,0.82
0.4545431137084961,-0.19,-0.54,0.68,0.88
0.46947288513183594,-0.28,-0.38,0.88,0.99
0.47403597831726074,-0.38,-0.21,0.77,0.88
0.48451805114746094,-0.21,-0.19,0.63,0.69
0.49462199211120605,0.01,-0.06,0.77,0.77
0.504547119140625,0.45,-0.06,0.74,0.86
0.5197839736938477,0.75,-0.26,0.63,1.01
0.5239009857177734,0.56,-0.29,0.26,0.68
0.5333859920501709,-0.24,-0.15,-0.27,0.39
0.5453469753265381,-0.56,0.11,-0.58,0.81
0.5557150840759277,-0.78,0.22,-0.5,0.95
0.5709280967712402,-0.89,0.27,-0.6,1.1
0.5742700099945068,-0.74,0.34,-0.59,1.0
0.5844719409942627,-0.42,0.29,-0.44,0.67
0.5935800075531006,0.05,0.12,-0.46,0.47
0.6030111312866211,0.31,0.0,-0.22,0.38
0.6201479434967041,0.32,-0.05,0.05,0.32
0.6248598098754883,0.25,-0.08,0.17,0.31
0.6348628997802734,0.19,-0.11,0.15,0.26
0.6446981430053711,-0.01,-0.13,-0.15,0.19
0.6546721458435059,-0.25,-0.11,-0.32,0.42
0.6701750755310059,-0.4,0.01,-0.33,0.51
0.6743509769439697,-0.43,0.11,-0.36,0.57
0.6869199275970459,-0.22,0.09,-0.44,0.5
0.6926150321960449,-0.02,0.15,-0.42,0.44
0.7033600807189941,0.0,0.19,-0.33,0.38
0.7180099487304688,0.09,0.16,-0.34,0.38
0.7241048812866211,0.16,0.18,-0.26,0.35
0.7346370220184326,0.11,0.15,-0.18,0.25
0.7447359561920166,0.1,0.11,-0.01,0.14
0.7552599906921387,0.06,0.15,0.07,0.17
0.7788748741149902,-0.15,0.13,0.02,0.19
0.7940199375152588,-0.15,0.17,0.01,0.22
0.7957658767700195,0.0,0.15,-0.06,0.16
0.7968330383300781,0.12,0.1,0.0,0.15
0.8035759925842285,0.1,0.02,0.11,0.15
0.8166539669036865,0.1,-0.02,0.1,0.14
0.8233838081359863,0.08,-0.05,-0.06,0.11
0.8421378135681152,0.09,-0.08,-0.25,0.27
0.8433098793029785,0.23,-0.09,-0.49,0.54
0.8531360626220703,0.24,-0.17,-0.61,0.67
0.8674020767211914,-0.2,-0.31,-0.8,0.88
0.8731420040130615,-0.22,-0.21,-0.47,0.55
0.8899030685424805,-0.22,-0.15,-0.07,0.27
0.8930768966674805,-0.27,-0.28,0.03,0.39
0.9036970138549805,-0.28,-0.42,-0.08,0.51
0.9171619415283203,-0.38,-0.47,-0.26,0.65
0.9233489036560059,-0.44,-0.47,-0.41,0.76
0.9400839805603027,-0.36,-0.47,-0.6,0.84
0.9430499076843262,-0.28,-0.42,-0.68,0.84
0.953495979309082,-0.24,-0.37,-0.72,0.84
0.9668920040130615,-0.33,-0.28,-0.75,0.86
0.9734559059143066,-0.45,-0.35,-0.69,0.89
0.9897029399871826,-0.48,-0.57,-0.81,1.1
0.993340015411377,-0.57,-0.87,-0.96,1.41
1.003490924835205,-0.61,-0.95,-1.06,1.54
1.0172758102416992,-0.67,-1.1,-0.97,1.61
1.0233068466186523,-0.59,-1.24,-0.65,1.51
1.0394511222839355,0.06,-1.21,-0.18,1.22
1.0434350967407227,0.79,-1.21,0.2,1.45
1.0536799430847168,1.05,-1.27,0.26,1.66
1.0678200721740723,0.93,-1.12,-0.09,1.45
1.0735878944396973,0.86,-0.88,-0.35,1.27
1.0914709568023682,1.4,-0.55,-0.62,1.62
1.0931148529052734,2.06,0.09,-0.53,2.12
1.103701114654541,2.61,0.91,-0.21,2.77
1.1171109676361084,3.12,1.99,0.38,3.72
1.123180866241455,3.62,3.31,1.02,5.01
1.139237880706787,3.84,5.0,1.84,6.56
1.1431879997253418,3.95,7.12,2.44,8.5
1.1538360118865967,4.03,9.35,2.49,10.48
1.167069911956787,4.94,11.09,1.79,12.27
1.174072027206421,6.25,11.84,0.72,13.4
1.1879291534423828,5.2,9.76,0.12,11.05
1.1934080123901367,5.03,9.5,-0.95,10.79
1.2038331031799316,4.38,9.52,-0.8,10.5
1.217094898223877,3.28,8.79,-0.14,9.38
1.223099946975708,2.32,7.95,0.96,8.33
1.2399959564208984,1.46,7.19,2.72,7.82
1.2432451248168945,0.71,6.17,4.35,7.58
1.253612995147705,-0.07,4.98,5.4,7.34
1.2673749923706055,-0.66,3.87,5.83,7.02
1.2730498313903809,-1.16,2.92,5.88,6.66
1.290374994277954,-1.88,2.2,5.59,6.29
1.2936749458312988,-2.41,1.62,4.97,5.75
1.3038058280944824,-2.68,1.2,4.07,5.01
1.3172979354858398,-2.87,0.87,2.99,4.23
1.32365083694458,-3.34,0.5,1.81,3.83
1.340008020401001,-3.83,-0.17,0.76,3.9
1.343675136566162,-3.89,-0.83,-0.06,3.97
1.3539838790893555,-3.58,-1.38,-0.65,3.89
1.3674299716949463,-3.62,-1.97,-1.11,4.26
1.3731451034545898,-3.87,-2.46,-1.48,4.81
1.3905858993530273,-4.29,-2.83,-1.77,5.43
1.3932580947875977,-5.05,-3.03,-2.08,6.24
1.4037749767303467,-5.45,-3.47,-2.17,6.81
1.4178040027618408,-5.51,-4.11,-2.07,7.17
1.423469066619873,-5.76,-4.53,-1.8,7.54
1.4411678314208984,-6.05,-4.66,-1.32,7.74
1.4432690143585205,-6.0,-4.91,-0.86,7.8
1.4538860321044922,-5.87,-5.11,-0.62,7.8
1.4673519134521484,-6.13,-4.95,-0.51,7.89
1.4732608795166016,-6.77,-4.85,-0.41,8.33
1.4903521537780762,-7.35,-5.01,-0.23,8.89
1.493246078491211,-7.64,-5.12,-0.17,9.19
1.503838062286377,-7.65,-5.03,-0.24,9.15
1.517261028289795,-7.38,-5.0,-0.19,8.91
1.5235638618469238,-7.01,-5.19,0.01,8.72
1.5397379398345947,-6.43,-5.39,0.14,8.39
1.543591022491455,-5.92,-5.51,0.37,8.09
1.5541300773620605,-5.56,-5.57,0.59,7.89
1.5672550201416016,-5.15,-5.62,0.54,7.64
1.573483943939209,-4.86,-5.56,0.56,7.4
1.5906469821929932,-4.72,-5.3,0.58,7.12
1.593824863433838,-4.66,-4.97,0.39,6.82
1.6042499542236328,-4.66,-4.79,0.06,6.68
1.6178159713745117,-4.6,-4.6,-0.25,6.51
1.6235389709472656,-4.28,-4.24,-0.5,6.04
1.6399810314178467,-3.74,-3.61,-0.44,5.21
1.643394947052002,-3.44,-2.91,-0.46,4.52
1.6538758277893066,-3.47,-2.44,-0.29,4.25
1.6678738594055176,-3.38,-2.26,0.24,4.07
1.6733829975128174,-3.12,-2.13,0.83,3.86
1.689371109008789,-3.05,-1.91,1.39,3.85
1.6955327987670898,-3.44,-1.52,1.85,4.19
1.7040579319000244,-3.95,-1.02,1.95,4.52
1.7179479598999023,-4.5,-0.51,1.87,4.89
1.7238011360168457,-4.87,0.3,1.6,5.13
1.7407379150390625,-5.12,1.16,1.08,5.35
1.7434489727020264,-5.11,1.71,-0.03,5.38
1.7546958923339844,-4.6,2.18,-1.14,5.21
1.7672348022460938,-3.79,2.35,-1.97,4.87
1.7737560272216797,-3.33,2.62,-2.12,4.73
1.7892451286315918,-3.25,3.49,-2.1,5.21
1.7934110164642334,-4.05,3.7,-2.0,5.83
1.803961992263794,-4.05,4.16,-1.51,5.99
1.8170580863952637,-3.71,4.77,-0.39,6.05
1.8237791061401367,-3.1,5.28,0.63,6.15
1.8393440246582031,-2.9,5.54,1.11,6.35
1.843446969985962,-2.78,6.0,0.83,6.66
1.8539319038391113,-2.85,6.94,0.33,7.5
1.867426872253418,-2.55,8.21,-0.7,8.62
1.8733248710632324,-1.95,8.56,-1.57,8.91
1.889739990234375,-1.09,7.81,-2.5,8.27
1.8939518928527832,0.32,7.54,-3.55,8.34
1.9042038917541504,1.24,7.11,-3.34,7.95
1.9174628257751465,2.03,6.5,-2.74,7.34
1.9237780570983887,2.31,5.78,-1.86,6.49
1.9392681121826172,2.13,5.02,-0.77,5.5
1.943842887878418,2.01,4.36,0.18,4.8
1.9542279243469238,2.02,3.78,0.98,4.39
1.9673738479614258,2.58,3.44,1.84,4.67
1.973397970199585,4.73,3.29,3.31,6.64
1.9891059398651123,8.28,3.01,5.25,10.25
1.9935708045959473,11.01,2.57,6.95,13.27
2.004089832305908,10.96,2.51,7.68,13.61
2.0176191329956055,8.38,3.35,7.07,11.46
2.02371883392334,5.05,4.51,5.15,8.5
2.0393528938293457,1.96,5.16,2.88,6.22
2.0437960624694824,0.58,5.3,0.82,5.39
2.054335117340088,0.86,5.14,-0.63,5.24
2.0677528381347656,2.19,5.06,-1.04,5.61
2.073702812194824,3.82,5.29,-0.5,6.54
2.090762138366699,4.75,5.24,0.0,7.07
2.093519926071167,4.85,4.68,-0.03,6.73
2.104175090789795,4.4,4.23,-0.11,6.1
2.1174769401550293,4.01,4.19,0.11,5.8
2.1238460540771484,3.84,4.32,0.49,5.8
2.140072822570801,3.4,4.37,0.64,5.57
2.1434998512268066,2.67,4.4,0.52,5.17
2.154003143310547,2.26,4.54,0.59,5.1
2.1673789024353027,2.19,4.87,0.77,5.39
2.1741859912872314,2.24,5.22,0.88,5.74
2.1892948150634766,2.26,5.45,0.84,5.95
2.1940839290618896,2.04,5.79,0.71,6.17
2.204411029815674,1.58,6.29,0.8,6.53
2.2180960178375244,0.89,6.67,0.88,6.78
2.2242178916931152,0.11,6.94,0.62,6.96
2.240226984024048,-0.78,7.34,0.05,7.38
2.2435379028320312,-1.82,7.82,-0.54,8.04
2.2542099952697754,-2.9,8.01,-1.31,8.61
2.2674479484558105,-3.59,7.9,-2.06,8.91
2.2738900184631348,-3.76,7.54,-2.35,8.74
2.2892680168151855,-3.29,7.08,-2.29,8.13
2.2936348915100098,-2.82,6.59,-1.99,7.43
2.304320812225342,-2.87,5.95,-1.79,6.84
2.316948890686035,-2.95,5.63,-1.8,6.6
2.3240580558776855,-3.8,4.66,-1.22,6.13
2.3384671211242676,-4.45,4.06,-0.98,6.1
2.3437108993530273,-5.35,3.44,-0.48,6.37
2.3542699813842773,-6.23,2.72,-0.1,6.79
2.3672189712524414,-6.54,1.79,-0.04,6.78
2.3738198280334473,-6.25,0.81,0.07,6.3
2.3889760971069336,-5.61,-0.1,0.18,5.61
2.3936171531677246,-4.91,-0.95,0.3,5.01
2.4042859077453613,-4.27,-1.72,0.44,4.62
2.4178149700164795,-3.87,-2.4,0.49,4.58
2.423740863800049,-3.83,-2.98,0.61,4.89
2.4394731521606445,-4.12,-3.43,0.76,5.41
2.443626880645752,-4.5,-3.7,0.81,5.88
2.453740119934082,-4.97,-3.89,0.78,6.35
2.46754789352417,-5.23,-4.21,0.75,6.75
2.4739108085632324,-5.18,-4.4,0.69,6.83
2.4887349605560303,-5.25,-4.33,0.63,6.83
2.4936399459838867,-5.38,-4.3,0.63,6.91
2.503714084625244,-5.3,-4.49,0.83,6.99
2.5178298950195312,-5.05,-4.73,1.13,7.01
2.5237679481506348,-4.78,-5.0,1.34,7.04
2.5375328063964844,-4.73,-5.32,1.39,7.25
2.5437140464782715,-4.92,-5.41,1.41,7.44
2.554263114929199,-5.23,-5.41,1.3,7.63
2.567288875579834,-5.59,-5.52,1.14,7.93
2.5737459659576416,-5.65,-5.68,0.87,8.05
2.58917498588562,-5.45,-5.9,0.57,8.05
2.593801975250244,-4.99,-6.14,0.32,7.91
2.6043379306793213,-4.24,-6.35,-0.02,7.63
2.6175179481506348,-3.39,-6.49,-0.11,7.32
2.6243491172790527,-2.75,-6.6,-0.09,7.15
2.640573024749756,-2.43,-6.43,0.07,6.87
2.6438188552856445,-2.47,-6.23,0.28,6.7
2.654515027999878,-2.85,-6.11,0.33,6.75
2.6688308715820312,-3.27,-5.84,0.05,6.69
2.6738691329956055,-3.53,-5.54,-0.31,6.57
2.6898398399353027,-3.65,-5.25,-0.45,6.4
2.693908929824829,-3.56,-4.8,-0.48,5.99
2.7039380073547363,-3.32,-4.41,-0.41,5.53
2.717557907104492,-2.94,-4.27,-0.35,5.19
2.7238879203796387,-2.79,-4.24,-0.23,5.08
2.739177942276001,-2.77,-4.11,-0.61,4.99
2.7437689304351807,-2.43,-3.75,-1.0,4.57
2.753859043121338,-2.74,-3.88,-0.59,4.78
2.767859935760498,-2.95,-3.92,-0.51,4.93
2.774005889892578,-3.14,-3.58,-0.55,4.79
2.789091110229492,-3.54,-3.18,-0.15,4.76
2.793843984603882,-3.76,-3.21,0.35,4.95
2.804492950439453,-4.09,-3.02,0.4,5.09
2.8165531158447266,-3.83,-1.86,0.25,4.26
2.823957920074463,-4.06,-0.93,0.63,4.21
2.838822841644287,-4.43,-0.19,1.0,4.54
2.843817949295044,-4.36,0.65,0.7,4.46
2.854526996612549,-3.65,1.33,0.14,3.88
2.8663790225982666,-3.97,0.64,0.24,4.02
2.874034881591797,-4.52,0.88,-0.19,4.6
2.8884949684143066,-4.79,2.59,-0.19,5.44
2.893838882446289,-5.72,4.11,0.67,7.07
2.9045770168304443,-6.52,5.1,0.35,8.28
2.9172580242156982,-6.34,5.94,-0.8,8.72
2.924379825592041,-5.48,6.4,-1.55,8.56
2.9391770362854004,-5.06,5.97,-1.35,7.94
2.9438350200653076,-3.57,6.16,-1.69,7.31
2.9545130729675293,-3.21,6.14,-1.46,7.08
2.9674999713897705,-3.61,6.25,-0.9,7.27
2.974540948867798,-3.64,6.17,-0.48,7.17
2.988494873046875,-3.42,5.98,-0.01,6.88
2.993852138519287,-3.0,6.13,0.38,6.83
3.0052549839019775,-2.83,6.25,0.45,6.87
3.0175271034240723,-2.72,6.08,0.47,6.67
3.0240578651428223,-2.36,5.81,0.67,6.3
3.03835391998291,-1.41,5.47,0.92,5.72
3.04390287399292,0.15,5.1,1.25,5.25
3.054642915725708,1.82,5.09,1.23,5.54
3.067765951156616,2.93,5.04,0.97,5.9
3.0745978355407715,3.59,4.73,0.75,5.98
3.086962938308716,4.01,4.59,0.87,6.15
3.0938611030578613,4.04,4.8,1.35,6.41
3.104614019393921,3.73,5.02,1.58,6.45
3.117414951324463,3.36,5.31,1.29,6.41
3.124069929122925,3.68,5.49,0.97,6.68
3.1391520500183105,4.54,5.7,0.97,7.35
3.143918037414551,5.78,5.9,1.32,8.36
3.153998851776123,6.93,5.86,1.52,9.2
3.1674139499664307,7.33,5.88,1.73,9.55
3.1741018295288086,7.26,6.38,1.96,9.86
3.1888670921325684,7.08,6.82,1.67,9.97
3.194016933441162,6.58,6.94,1.13,9.63
3.2039971351623535,6.09,6.99,0.44,9.28
3.2176260948181152,5.59,7.0,-0.13,8.95
3.224390983581543,5.17,6.69,-0.07,8.45
3.2385640144348145,5.4,6.51,0.6,8.47
3.2440059185028076,5.53,6.32,1.88,8.6
3.254657030105591,5.75,6.16,3.36,9.07
3.2674241065979004,5.74,6.48,4.42,9.71
3.2745819091796875,4.76,7.15,4.68,9.78
3.2886648178100586,3.16,7.97,4.24,9.56
3.2940220832824707,1.25,8.89,3.54,9.65
3.3047640323638916,-0.87,9.8,2.68,10.19
3.317901134490967,-2.35,10.12,1.51,10.49
3.3244380950927734,-3.28,9.85,0.66,10.4
3.3385910987854004,-3.85,9.42,0.38,10.18
3.3446109294891357,-3.99,8.94,0.65,9.81
3.3549318313598633,-4.16,8.19,0.78,9.21
3.36811900138855,-4.7,7.08,0.86,8.54
3.373900890350342,-5.42,6.04,1.04,8.18
3.389704942703247,-6.35,5.06,1.4,8.23
3.3940930366516113,-7.49,4.3,1.5,8.76
3.4047088623046875,-9.0,3.64,1.15,9.77
3.418612003326416,-10.08,3.01,0.89,10.55
3.424471855163574,-9.99,2.39,0.84,10.3
3.4400548934936523,-9.05,1.51,0.84,9.21
3.444085121154785,-8.11,0.56,0.64,8.15
3.4540820121765137,-7.41,-0.09,0.43,7.42
3.4680747985839844,-6.98,-0.88,0.32,7.04
3.4743850231170654,-6.51,-1.63,0.05,6.71
3.4891409873962402,-6.44,-2.32,0.27,6.85
3.4941649436950684,-6.41,-2.99,0.6,7.09
3.5040369033813477,-6.41,-3.62,0.84,7.4
3.5175089836120605,-6.6,-4.1,0.89,7.82
3.524160861968994,-6.72,-4.63,0.64,8.18
3.5389230251312256,-6.48,-4.94,-0.07,8.14
3.5440750122070312,-6.02,-5.16,-0.8,7.96
3.5541129112243652,-5.17,-5.37,-1.2,7.55
3.568030834197998,-4.37,-5.54,-1.33,7.18
3.5743818283081055,-3.88,-5.82,-1.28,7.11
3.588858127593994,-3.74,-6.08,-1.08,7.21
3.5941100120544434,-3.81,-6.3,-0.87,7.41
3.604130983352661,-3.91,-6.49,-0.65,7.6
3.6179590225219727,-4.05,-6.53,-0.58,7.7
3.624295949935913,-4.28,-6.5,-0.71,7.81
3.638406991958618,-4.47,-6.45,-0.95,7.9
3.6441431045532227,-4.36,-6.4,-1.31,7.85
3.654149055480957,-3.78,-6.58,-1.67,7.77
3.6683340072631836,-3.13,-6.82,-1.77,7.7
3.6744840145111084,-2.79,-6.72,-1.79,7.49
3.6894569396972656,-2.7,-6.48,-1.84,7.25
3.6942191123962402,-2.67,-6.37,-1.95,7.17
3.7041358947753906,-2.65,-6.33,-2.08,7.17
3.71759295463562,-2.76,-6.11,-2.12,7.03
3.724236011505127,-2.82,-5.93,-1.9,6.83
3.7389631271362305,-2.56,-6.15,-1.9,6.92
3.744074821472168,-2.38,-6.22,-1.84,6.9
3.7542219161987305,-2.3,-5.91,-1.54,6.52
3.7676079273223877,-2.26,-5.63,-1.3,6.2
3.774343967437744,-2.37,-5.42,-1.2,6.03
3.788754940032959,-2.32,-5.16,-1.08,5.75
3.7941298484802246,-2.12,-5.01,-0.93,5.51
3.804263114929199,-2.13,-4.79,-0.81,5.3
3.817647933959961,-2.52,-4.45,-0.76,5.17
3.8243370056152344,-3.1,-4.13,-0.72,5.21
3.838858127593994,-3.53,-3.83,-0.79,5.26
3.84420108795166,-3.6,-3.73,-0.86,5.25
3.8549399375915527,-3.31,-3.83,-0.66,5.1
3.867279052734375,-3.0,-3.72,-0.2,4.78
3.8750181198120117,-3.1,-3.2,0.37,4.47
3.8887100219726562,-3.43,-2.24,0.71,4.15
3.8942320346832275,-4.12,-1.32,0.47,4.35
3.9050090312957764,-5.06,-0.77,0.11,5.11
3.9177589416503906,-5.47,-0.23,-0.04,5.47
3.924816131591797,-5.49,0.39,0.21,5.5
3.9394731521606445,-5.5,1.19,0.63,5.66
3.9442880153656006,-5.57,2.16,0.99,6.05
3.954329013824463,-5.71,3.17,1.0,6.6
3.9676060676574707,-5.92,4.14,0.5,7.24
3.9745259284973145,-5.56,5.11,-0.59,7.57
3.9892311096191406,-5.49,5.25,-0.8,7.63
3.9943199157714844,-4.99,5.41,-0.98,7.42
4.004361152648926,-4.58,5.48,-0.6,7.16
4.017248153686523,-4.39,5.46,-0.2,7.0
4.024346828460693,-4.18,5.23,0.1,6.69
4.037604808807373,-3.99,4.96,0.31,6.37
4.04436993598938,-3.44,4.81,0.53,5.93
4.054288864135742,-3.15,4.77,0.78,5.76
4.067852020263672,-3.01,4.74,1.0,5.7
4.074463844299316,-2.8,4.62,1.25,5.54
4.089118003845215,-2.42,4.62,1.54,5.43
4.094303131103516,-1.54,4.61,1.55,5.1
4.1043479442596436,-0.54,4.55,1.42,4.79
4.117224931716919,-0.09,4.77,1.41,4.97
4.124302864074707,0.06,4.95,1.41,5.14
4.1390650272369385,0.41,4.89,1.31,5.07
4.144446849822998,0.92,4.91,1.15,5.12
4.154422998428345,1.69,4.92,1.02,5.3
4.167275905609131,2.53,4.84,1.0,5.55
4.174576997756958,3.1,5.01,0.95,5.96
4.189043045043945,3.58,4.96,0.73,6.16
4.194375038146973,3.97,4.64,0.55,6.13
4.204401016235352,4.32,4.49,0.63,6.26
4.216989040374756,4.72,4.29,1.05,6.46
4.224472999572754,4.97,4.0,1.61,6.57
4.2369749546051025,4.83,3.89,2.09,6.54
4.244473934173584,4.51,4.09,2.57,6.6
4.255136966705322,4.16,4.57,3.0,6.86
4.2675371170043945,3.64,5.28,3.53,7.32
4.275012969970703,3.24,5.89,3.93,7.78
4.288765907287598,3.05,6.26,3.84,7.95
4.294503927230835,2.79,6.61,3.57,8.01
4.3044538497924805,2.54,7.1,3.29,8.22
4.31737494468689,2.48,7.48,2.98,8.42
4.324792861938477,2.53,7.78,2.35,8.51
4.339261054992676,2.58,8.12,1.37,8.62
4.3444859981536865,2.41,8.58,0.94,8.96
4.354506015777588,1.89,9.2,0.98,9.44
4.36704683303833,1.01,9.44,1.05,9.55
4.374583959579468,-0.21,9.67,1.17,9.74
4.388382911682129,-1.43,10.01,1.23,10.18
4.394420146942139,-2.37,10.32,1.24,10.66
4.404480934143066,-3.01,10.28,0.88,10.74
4.417320013046265,-3.56,9.51,0.2,10.15
4.424869060516357,-4.03,8.68,-0.24,9.57
4.439638137817383,-4.35,8.02,0.14,9.12
4.444443941116333,-4.61,7.3,0.77,8.66
4.454502105712891,-4.73,6.22,1.32,7.92
4.467403888702393,-4.81,5.44,1.82,7.48
4.47453498840332,-5.23,4.95,1.94,7.45
4.489492893218994,-5.88,4.15,1.6,7.37
4.494495868682861,-6.72,3.28,1.22,7.57
4.504511833190918,-7.35,2.06,0.95,7.69
4.5169830322265625,-7.21,1.02,0.76,7.32
4.524579048156738,-6.59,0.21,0.91,6.65
4.538926124572754,-5.75,-0.76,0.64,5.83
4.544556140899658,-5.34,-1.37,0.09,5.51
4.55453896522522,-5.34,-1.87,-0.23,5.66
4.567132949829102,-5.35,-2.55,-0.73,5.97
4.574710845947266,-5.6,-2.98,-0.89,6.4
4.58887791633606,-5.51,-3.37,-0.5,6.47
4.594551086425781,-5.32,-3.96,-0.38,6.64
4.604607105255127,-5.44,-4.23,-0.52,6.91
4.61732292175293,-5.58,-4.45,-0.63,7.16
4.624995946884155,-5.59,-4.96,-0.61,7.49
4.638868808746338,-5.4,-5.58,-0.49,7.78
4.644515037536621,-5.0,-6.22,-0.29,7.98
4.654598951339722,-4.59,-6.79,-0.06,8.19
4.6670308113098145,-4.5,-7.06,-0.15,8.37
4.674851894378662,-4.63,-7.22,-0.5,8.59
4.68878698348999,-4.79,-7.41,-0.81,8.86
4.694651126861572,-4.98,-7.57,-1.05,9.12
4.7046449184417725,-5.07,-7.57,-1.26,9.19
4.717084884643555,-5.04,-7.48,-1.4,9.12
4.724738121032715,-5.13,-7.34,-1.57,9.09
4.739141941070557,-5.09,-7.17,-1.73,8.96
4.744650840759277,-4.77,-7.18,-1.71,8.78
4.754664897918701,-4.22,-7.46,-1.47,8.69
4.767279148101807,-3.76,-7.67,-1.2,8.62
4.774724006652832,-3.47,-7.69,-1.06,8.5
4.78892183303833,-3.48,-7.5,-0.98,8.32
4.794642925262451,-3.7,-7.23,-0.93,8.17
4.804596900939941,-3.95,-6.92,-0.9,8.01
4.817195892333984,-4.16,-6.62,-0.88,7.86
4.824974060058594,-4.22,-6.33,-0.92,7.66
4.838581085205078,-4.15,-5.96,-0.92,7.32
4.844695091247559,-4.27,-5.4,-1.05,6.96
4.854701995849609,-4.58,-4.81,-1.37,6.78
4.866801977157593,-4.7,-4.4,-1.57,6.62
4.874782085418701,-4.54,-4.26,-1.82,6.48
4.887083053588867,-4.19,-4.38,-2.12,6.42
4.894706964492798,-3.8,-4.59,-2.32,6.39
4.905445098876953,-3.77,-4.66,-2.21,6.38
4.917515993118286,-3.96,-4.51,-1.54,6.19
4.925004959106445,-4.17,-4.21,-0.67,5.96
4.93869686126709,-4.9,-3.84,0.16,6.22
4.944746971130371,-5.65,-3.73,0.88,6.82
4.955451011657715,-5.9,-3.46,1.43,6.98
4.9676759243011475,-5.92,-2.65,1.9,6.75
4.975292921066284,-5.8,-1.68,2.21,6.43
4.9897379875183105,-5.9,-0.45,2.21,6.31
4.9947099685668945,-6.34,1.06,2.12,6.76
5.005395889282227,-6.8,2.37,1.88,7.44
5.017565011978149,-7.1,3.17,1.16,7.86
5.025041103363037,-7.2,3.62,0.32,8.06
5.039483070373535,-6.66,4.19,-0.23,7.87
5.044772148132324,-5.77,4.94,-0.58,7.61
5.054872035980225,-4.95,5.48,-0.98,7.44
5.068009853363037,-4.59,5.93,-1.22,7.59
5.074871063232422,-4.8,6.32,-1.33,8.04
5.089168071746826,-5.11,6.55,-1.26,8.4
5.094849109649658,-5.05,6.56,-0.94,8.33
5.10485315322876,-4.54,6.58,-0.34,8.0
5.117234945297241,-3.89,6.76,0.75,7.83
5.125229835510254,-3.36,6.97,1.43,7.86
5.1394758224487305,-2.87,6.97,1.44,7.67
5.144796848297119,-2.57,7.21,1.19,7.74
5.154804944992065,-2.68,7.5,1.04,8.03
5.167287826538086,-2.23,7.08,0.66,7.45
5.174982070922852,-0.83,6.96,0.56,7.03
5.187221050262451,0.78,6.63,0.41,6.68
5.194875955581665,2.0,6.22,0.34,6.54
5.204845905303955,2.73,6.04,0.43,6.64
5.217331886291504,3.15,6.15,0.69,6.94
5.2252960205078125,3.51,6.09,1.37,7.16
5.238876819610596,3.74,6.43,2.08,7.72
5.2447669506073,3.99,6.88,2.52,8.34
5.254859924316406,4.11,7.4,2.8,8.91
5.267452955245972,4.37,8.11,2.97,9.67
5.274908065795898,4.63,8.84,2.77,10.35
5.2889909744262695,4.81,9.48,2.38,10.89
5.294896125793457,5.32,10.26,1.9,11.71
5.305578947067261,5.43,10.51,1.18,11.88
5.317662954330444,5.3,10.32,0.36,11.6
5.325153827667236,5.31,10.28,-0.24,11.57
5.338940143585205,5.32,10.14,-0.43,11.45
5.344877004623413,5.11,10.01,-0.45,11.24
5.355634927749634,4.41,9.91,-0.28,10.85
5.36796498298645,3.54,9.46,-0.01,10.1
5.375447988510132,2.83,8.77,0.18,9.21
5.389410018920898,2.26,8.03,0.86,8.38
5.394950866699219,1.91,7.53,1.79,7.97
5.405642986297607,1.24,7.2,2.43,7.69
5.417726993560791,0.19,6.95,2.61,7.42
5.425230026245117,-0.79,6.56,2.46,7.05
5.438941955566406,-1.5,6.14,2.06,6.64
5.444913864135742,-2.04,5.83,1.54,6.36
5.45558500289917,-2.49,5.75,1.12,6.36
5.468429088592529,-2.78,5.91,0.47,6.54
5.474966049194336,-3.26,5.72,-0.56,6.6
5.489871978759766,-3.92,5.4,-1.62,6.86
5.494943141937256,-4.44,5.39,-2.1,7.29
5.505041122436523,-4.47,5.42,-2.14,7.34
5.5175981521606445,-4.56,5.09,-1.98,7.11
5.525024890899658,-5.03,4.69,-1.63,7.06
5.536862850189209,-5.6,4.33,-1.02,7.15
5.544940948486328,-6.08,4.01,-0.41,7.29
5.554991960525513,-6.46,3.65,-0.05,7.42
5.567461013793945,-7.01,3.15,0.25,7.68
5.575203895568848,-7.58,2.79,0.72,8.1
5.5893800258636475,-8.05,2.3,0.95,8.42
5.594994068145752,-8.2,1.46,0.87,8.37
5.6050238609313965,-7.97,0.49,0.58,8.0
5.617680072784424,-7.67,-0.33,0.21,7.67
5.625310897827148,-7.47,-1.16,0.09,7.56
5.638854026794434,-7.15,-2.12,0.1,7.45
5.644988059997559,-6.84,-3.12,0.2,7.52
5.655055999755859,-6.68,-3.86,0.42,7.72
5.668076038360596,-6.58,-4.56,0.67,8.03
5.6752870082855225,-6.6,-5.05,0.93,8.36
5.687096118927002,-6.6,-5.42,1.18,8.62
5.695055961608887,-6.43,-5.9,1.36,8.83
5.70516300201416,-6.29,-6.34,1.41,9.04
5.717906951904297,-6.08,-6.67,1.41,9.13
5.725028991699219,-5.82,-6.95,1.4,9.17
5.7395179271698,-5.54,-7.09,1.23,9.08
5.745110988616943,-5.29,-7.16,0.82,8.93
5.75509786605835,-5.03,-7.27,0.44,8.85
5.767815113067627,-4.68,-7.31,0.05,8.67
5.775166988372803,-4.4,-7.26,-0.31,8.49
5.789082050323486,-4.28,-7.18,-0.58,8.37
5.795054912567139,-4.22,-7.11,-0.79,8.3
5.805112838745117,-4.19,-7.03,-0.8,8.22
5.817750930786133,-4.12,-7.08,-0.73,8.22
5.8251800537109375,-3.93,-7.15,-0.58,8.17
5.837774991989136,-3.93,-7.08,-0.39,8.1
5.845090866088867,-4.06,-6.94,-0.3,8.04
5.855184078216553,-4.15,-6.76,-0.46,7.94
5.867666959762573,-4.23,-6.41,-0.34,7.68
5.875258922576904,-4.1,-6.19,-0.17,7.42
5.887606143951416,-3.84,-6.14,0.0,7.24
5.895019054412842,-3.85,-5.98,0.1,7.11
5.905087947845459,-4.12,-5.78,0.19,7.1
5.917850971221924,-4.3,-5.59,0.17,7.05
5.92514705657959,-4.58,-5.28,0.07,6.98
5.939219951629639,-4.75,-4.87,-0.05,6.8
5.9451329708099365,-4.91,-4.35,-0.3,6.56
5.955196857452393,-5.16,-3.78,-0.53,6.41
5.967744827270508,-5.19,-3.35,-0.67,6.21
5.975286960601807,-5.15,-3.12,-0.86,6.08
5.987215042114258,-5.22,-3.02,-0.96,6.1
5.995123863220215,-5.48,-2.92,-0.92,6.27
6.005265951156616,-5.86,-2.58,-0.77,6.44
6.017691135406494,-5.97,-2.15,-0.45,6.36
6.025600910186768,-5.67,-1.9,0.04,5.98
6.039575099945068,-5.32,-1.33,0.65,5.52
6.0450568199157715,-5.32,-0.54,1.15,5.46
6.055163860321045,-5.66,0.51,1.25,5.81
6.0676589012146,-5.92,1.21,0.85,6.1
6.075246810913086,-6.49,1.67,-0.11,6.7
6.088858127593994,-7.04,2.63,-1.01,7.58
6.0959389209747314,-7.46,4.03,-1.4,8.59
6.105234146118164,-7.33,5.35,-1.32,9.17
6.1170148849487305,-6.39,6.38,-1.01,9.08
6.126008987426758,-5.4,7.1,-0.72,8.94
6.139405965805054,-4.74,7.48,-0.81,8.89
6.1457459926605225,-4.55,7.62,-1.12,8.94
6.155174970626831,-4.56,7.79,-1.58,9.16
6.167937994003296,-4.0,7.72,-1.91,8.9
6.1753129959106445,-3.16,7.36,-1.48,8.14
6.1892900466918945,-2.24,7.13,-0.78,7.51
6.195858955383301,-1.49,6.76,-0.21,6.92
6.2053399085998535,-0.89,6.42,0.22,6.48
6.218125820159912,-0.32,6.24,0.62,6.27
6.22529411315918,0.04,6.24,0.98,6.31
6.238071918487549,0.4,6.26,1.15,6.37
6.245875835418701,0.94,6.29,1.12,6.45
6.2552690505981445,1.74,6.29,1.09,6.61
6.267936944961548,2.3,6.52,1.22,7.02
6.275409936904907,2.73,6.77,1.37,7.42
6.288007974624634,2.83,6.78,1.53,7.5
6.295874118804932,2.98,6.93,1.8,7.75
6.305328845977783,3.27,7.11,2.04,8.08
6.31727409362793,3.53,7.09,2.0,8.16
6.325345039367676,3.77,7.07,1.9,8.23
6.3380749225616455,3.95,7.08,2.1,8.37
6.3459248542785645,3.95,7.11,2.38,8.47
6.355312824249268,4.01,7.01,2.58,8.47
6.368349075317383,3.84,6.89,2.85,8.38
6.375420093536377,3.56,7.13,2.96,8.5
6.387013912200928,3.42,7.39,2.64,8.56
6.3960161209106445,3.52,7.36,1.99,8.39
6.405369997024536,3.63,7.28,1.31,8.23
6.417842864990234,3.71,7.23,0.98,8.18
6.425673007965088,3.5,7.29,1.11,8.16
6.4386680126190186,2.96,7.51,1.52,8.21
6.446108818054199,2.21,7.81,1.75,8.3
6.455345153808594,1.32,7.78,2.18,8.18
6.467197895050049,1.08,7.86,2.45,8.3
6.475502967834473,1.1,8.03,1.95,8.33
6.488394021987915,0.39,8.3,0.86,8.35
6.495940923690796,-0.78,8.44,-0.48,8.48
6.505358934402466,-1.54,8.41,-1.96,8.77
6.517207145690918,-1.6,8.44,-3.06,9.11
6.525408029556274,-1.27,8.38,-3.7,9.24
6.5389180183410645,-0.97,8.27,-3.99,9.23
6.545815944671631,-1.1,8.16,-3.83,9.08
6.5554070472717285,-1.8,8.08,-3.35,8.93
6.568197965621948,-3.1,7.96,-2.8,8.98
6.5755109786987305,-4.74,7.67,-2.21,9.28
6.589098930358887,-6.12,7.15,-1.52,9.53
6.595676898956299,-6.94,6.51,-0.85,9.55
6.605462074279785,-7.47,5.84,-0.22,9.48
6.618932008743286,-7.83,4.97,0.27,9.27
6.6254658699035645,-8.02,4.07,0.62,9.01
6.636961936950684,-8.23,3.26,1.06,8.91
6.645928859710693,-8.58,2.58,1.45,9.07
6.655462980270386,-8.83,1.87,1.67,9.17
6.668148040771484,-9.04,1.18,1.59,9.25
6.675685882568359,-9.06,0.37,1.64,9.21
6.6871418952941895,-8.79,-0.55,1.81,8.99
6.695806980133057,-8.6,-1.38,2.06,8.95
6.70554780960083,-8.49,-2.21,2.24,9.05
6.718516826629639,-8.26,-3.0,2.27,9.07
6.726200103759766,-7.95,-3.66,2.23,9.03
6.738384962081909,-7.61,-4.25,2.14,8.97
6.745748996734619,-7.11,-4.79,1.95,8.79
6.7554919719696045,-6.58,-5.22,1.68,8.56
6.768278121948242,-6.17,-5.56,1.34,8.41
6.775662899017334,-5.82,-5.93,0.93,8.36
6.789053916931152,-5.59,-6.3,0.54,8.43
6.795540809631348,-5.37,-6.6,0.13,8.5
6.805650949478149,-5.2,-6.89,-0.17,8.63
6.818315029144287,-5.16,-7.14,-0.29,8.81
6.8260178565979,-5.21,-7.3,-0.27,8.97
6.839409828186035,-5.24,-7.35,-0.18,9.02
6.845786094665527,-5.22,-7.28,-0.14,8.95
6.855587959289551,-5.29,-7.15,-0.19,8.89
6.868249893188477,-5.3,-7.16,-0.27,8.91
6.876031875610352,-5.26,-7.32,-0.34,9.02
6.888661861419678,-5.12,-7.41,-0.35,9.01
6.895732879638672,-4.87,-7.48,-0.31,8.93
6.9056079387664795,-4.52,-7.54,-0.18,8.79
6.918246030807495,-4.2,-7.48,-0.11,8.57
6.9256768226623535,-4.06,-7.33,-0.07,8.37
6.93718695640564,-4.1,-7.19,-0.07,8.27
6.945588111877441,-4.29,-7.03,-0.15,8.23
6.955598831176758,-4.3,-6.7,-0.14,7.96
6.968302011489868,-4.14,-6.2,-0.02,7.45
6.976408004760742,-3.91,-5.78,-0.01,6.97
6.989975929260254,-3.72,-5.29,-0.11,6.46
6.995630979537964,-3.7,-4.77,-0.29,6.04
7.005648136138916,-3.89,-4.2,-0.58,5.75
7.0181660652160645,-4.16,-3.8,-1.02,5.72
7.026310920715332,-4.33,-3.65,-1.4,5.83
7.039466857910156,-4.28,-3.57,-1.51,5.77
7.045542001724243,-4.08,-3.46,-1.39,5.52
7.055667877197266,-3.81,-3.48,-0.91,5.23
7.0683698654174805,-3.68,-3.5,-0.17,5.08
7.075861930847168,-3.94,-3.36,0.59,5.21
7.087707042694092,-4.49,-3.18,1.33,5.66
7.095477104187012,-4.9,-2.86,1.82,5.95
7.105723857879639,-5.33,-2.41,1.84,6.13
7.118390083312988,-5.63,-1.66,1.61,6.08
7.1261749267578125,-5.5,-0.92,1.37,5.74
7.139409065246582,-5.37,-0.44,0.99,5.47
7.145533084869385,-5.14,-0.26,0.48,5.16
7.15576696395874,-5.0,0.08,0.06,5.0
7.168345928192139,-4.9,0.6,0.0,4.93
7.176223993301392,-4.75,1.26,-0.01,4.91
7.189042091369629,-4.95,1.82,-0.07,5.27
7.19562292098999,-5.53,2.35,-0.11,6.0
7.2056639194488525,-6.26,2.92,-0.01,6.9
7.21746301651001,-6.98,3.49,0.16,7.8
7.2262959480285645,-7.2,4.24,0.63,8.37
7.237344026565552,-6.57,5.04,1.02,8.34
7.245524883270264,-5.63,5.55,0.89,7.95
7.255735874176025,-4.97,5.9,0.1,7.71
7.269686937332153,-4.19,6.89,-0.58,8.08
7.276379108428955,-3.94,7.21,-0.7,8.24
7.289575099945068,-3.27,7.41,-1.3,8.2
7.295630931854248,-2.58,7.49,-1.51,8.06
7.305711030960083,-1.91,7.85,-1.61,8.23
7.318259000778198,-1.3,8.09,-1.77,8.38
7.326053142547607,-0.56,8.11,-1.91,8.35
7.3387839794158936,0.09,8.22,-2.01,8.46
7.345494031906128,0.37,8.04,-1.96,8.28
7.355726957321167,0.76,7.67,-1.6,7.87
7.368314981460571,1.43,7.5,-1.04,7.7
7.375718116760254,1.99,7.52,-0.15,7.78
7.387193918228149,2.21,7.42,0.71,7.77
7.395654916763306,1.98,7.19,1.21,7.55
7.405751943588257,1.83,7.11,1.4,7.47
7.4184489250183105,2.19,6.94,1.91,7.52
7.4260478019714355,2.84,6.88,2.48,7.84
7.438838005065918,3.35,7.08,2.98,8.38
7.445609092712402,3.71,7.45,3.28,8.94
7.455854892730713,4.14,7.74,3.42,9.42
7.468281984329224,4.41,8.26,3.51,9.99
7.47652006149292,4.36,9.04,3.42,10.6
7.490275859832764,4.19,9.82,3.08,11.11
7.495775938034058,3.93,10.54,2.57,11.53
7.505859851837158,3.73,11.11,1.87,11.86
7.5186920166015625,3.58,11.46,0.88,12.03
7.525767803192139,3.57,11.64,-0.31,12.17
7.537301063537598,3.45,11.72,-1.33,12.28
7.545720100402832,2.76,11.67,-1.65,12.1
7.5558319091796875,1.66,11.45,-1.43,11.65
7.568460941314697,0.55,10.94,-0.82,10.98
7.575860023498535,-0.38,10.23,-0.1,10.23
7.587374925613403,-1.4,9.46,0.36,9.56
7.595752000808716,-2.37,8.75,0.65,9.08
7.605832099914551,-3.24,8.22,0.81,8.87
7.618572950363159,-3.94,7.7,0.71,8.67
7.626298904418945,-4.93,7.36,0.41,8.86
7.6392669677734375,-5.94,7.01,0.09,9.18
7.645787954330444,-6.49,6.65,-0.13,9.29
7.656016826629639,-7.03,6.33,-0.22,9.46
7.668399810791016,-7.61,5.67,-0.26,9.49
7.676764011383057,-8.09,4.8,-0.28,9.41
7.68690299987793,-8.54,3.98,0.0,9.42
7.695781946182251,-8.95,3.08,0.28,9.46
7.7060019969940186,-9.29,1.99,0.45,9.51
7.717684030532837,-9.59,1.09,0.71,9.67
7.7259650230407715,-9.94,0.34,0.88,9.98
7.736810922622681,-10.06,-0.37,0.76,10.09
7.745771884918213,-9.94,-1.03,0.42,10.0
7.756011009216309,-9.52,-1.78,0.06,9.68
7.768728971481323,-8.88,-2.45,-0.13,9.21
7.776098966598511,-8.23,-2.97,-0.18,8.75
7.7863850593566895,-7.42,-3.48,-0.05,8.19
7.796047925949097,-6.91,-3.92,0.31,7.95
7.806015968322754,-6.7,-4.28,0.69,7.98
7.818838119506836,-6.61,-4.75,0.87,8.18
7.826013088226318,-6.53,-5.22,0.92,8.41
7.836636066436768,-6.45,-5.58,1.03,8.59
7.845892906188965,-6.27,-5.92,1.14,8.69
7.855891942977905,-6.04,-6.22,1.14,8.74
7.867727994918823,-5.78,-6.52,1.05,8.77
7.876608848571777,-5.41,-6.8,0.82,8.72
7.889310836791992,-5.18,-6.97,0.46,8.69
7.895977020263672,-5.05,-7.16,0.03,8.76
7.905994892120361,-4.76,-7.39,-0.31,8.79
7.918806076049805,-4.46,-7.58,-0.53,8.81
7.926141977310181,-4.28,-7.71,-0.67,8.84
7.937407970428467,-4.29,-7.81,-0.74,8.94
7.945908069610596,-4.23,-7.98,-0.66,9.05
7.95600700378418,-4.08,-8.15,-0.58,9.13
7.968657970428467,-3.92,-8.27,-0.5,9.16
7.976419925689697,-3.76,-8.34,-0.46,9.15
7.98747992515564,-3.56,-8.31,-0.42,9.05
7.996139049530029,-3.23,-8.22,-0.38,8.84
8.006010055541992,-2.89,-8.04,-0.25,8.54
8.018664836883545,-2.75,-7.75,-0.14,8.22
8.026039123535156,-2.81,-7.41,-0.1,7.92
8.036191940307617,-3.15,-6.98,-0.25,7.66
8.045974969863892,-3.58,-6.54,-0.56,7.47
8.056159973144531,-3.72,-6.3,-0.74,7.35
8.06868600845337,-3.48,-6.19,-0.8,7.14
8.075989961624146,-3.0,-6.03,-0.74,6.77
8.086535930633545,-2.69,-5.82,-0.69,6.44
8.096096992492676,-2.67,-5.6,-0.67,6.24
8.105987071990967,-2.88,-5.43,-0.65,6.18
8.118685960769653,-3.17,-5.15,-0.48,6.06
8.126343965530396,-3.6,-4.57,0.0,5.81
8.138911962509155,-4.23,-3.8,0.61,5.71
8.146163940429688,-5.18,-3.17,1.0,6.15
8.156136989593506,-6.35,-2.62,1.1,6.95
8.168859004974365,-7.31,-2.13,1.13,7.69
8.17616081237793,-7.39,-1.91,1.24,7.73
8.186633110046387,-6.76,-1.62,1.63,7.13
8.196154117584229,-6.4,-0.8,2.28,6.84
8.206130981445312,-6.69,0.27,2.79,7.25
8.219149112701416,-7.13,1.15,2.64,7.68
8.226090908050537,-7.7,1.67,2.0,8.12
8.23658800125122,-8.18,2.31,1.2,8.58
8.245970010757446,-8.32,3.19,0.51,8.92
8.256191968917847,-7.97,3.85,-0.26,8.85
8.268486022949219,-7.16,4.41,-0.96,8.46
8.276111125946045,-6.37,4.97,-1.25,8.17
8.286512851715088,-6.07,5.34,-1.45,8.21
8.296152114868164,-6.05,5.75,-1.56,8.49
8.306068897247314,-5.58,6.12,-1.35,8.39
8.31879997253418,-4.76,6.56,-1.13,8.18
8.32608699798584,-3.95,6.91,-0.91,8.01
8.336736917495728,-3.52,7.15,-1.01,8.03
8.346232891082764,-3.34,7.16,-1.72,8.08
8.356214046478271,-2.54,6.73,-2.08,7.48
8.367772102355957,-1.29,6.55,-2.08,6.99
8.38844108581543,-0.42,6.71,-1.86,6.97
8.389471054077148,-0.04,6.89,-1.76,7.11
8.396285057067871,0.27,6.9,-1.62,7.09
8.406146049499512,0.6,6.84,-1.55,7.03
8.418991088867188,1.08,6.73,-1.29,6.93
8.426273822784424,1.48,6.62,-0.69,6.81
8.436572074890137,1.69,6.6,-0.01,6.81
8.446051120758057,2.19,6.65,0.57,7.02
8.456212997436523,2.78,6.78,1.16,7.41
8.46868085861206,3.1,7.05,1.66,7.87
8.476274013519287,3.19,7.35,1.8,8.21
8.486287117004395,3.2,7.69,1.89,8.54
8.496148109436035,3.13,7.99,1.78,8.76
8.506220817565918,3.19,8.39,1.55,9.1
8.518271923065186,3.48,8.89,1.5,9.66
8.538578033447266,3.72,9.1,1.61,9.96
8.53920602798462,3.68,8.9,1.63,9.76
8.546006917953491,3.68,8.59,1.57,9.47
8.556299924850464,3.89,8.39,1.68,9.39
8.56793999671936,3.81,8.28,1.89,9.3
8.588212966918945,3.39,8.26,1.94,9.13
8.588840961456299,2.78,8.19,1.68,8.81
8.596271991729736,2.29,7.94,1.66,8.42
8.606276988983154,1.89,7.64,1.58,8.02
8.618956089019775,1.62,7.39,1.31,7.67
8.626281023025513,1.21,7.37,0.99,7.53
8.637130975723267,0.63,7.34,0.72,7.4
8.646253108978271,0.08,7.37,0.26,7.37
8.656338930130005,-0.64,7.58,-0.38,7.61
8.668967008590698,-1.48,7.65,-0.89,7.84
8.686789989471436,-2.14,7.47,-1.36,7.88
8.687855005264282,-2.69,7.3,-1.65,7.95
8.696254968643188,-3.3,7.23,-1.83,8.15
8.706398010253906,-4.02,7.13,-2.05,8.43
8.718110084533691,-4.75,6.79,-2.35,8.61
8.726388931274414,-5.4,6.23,-2.37,8.57
8.737084865570068,-5.97,5.69,-2.11,8.51
8.746367931365967,-6.27,5.12,-1.73,8.27
8.756425857543945,-6.49,4.66,-1.43,8.11
8.769197940826416,-6.85,4.32,-1.14,8.17
8.776391983032227,-7.17,3.71,-1.03,8.13
8.786773920059204,-7.44,3.01,-0.9,8.07
8.79640793800354,-7.53,2.48,-0.59,7.94
8.806349992752075,-7.36,1.85,-0.41,7.6
8.819448947906494,-7.24,1.14,-0.33,7.33
8.8263840675354,-7.21,0.48,-0.36,7.23
8.836927890777588,-7.07,-0.26,-0.43,7.08
8.84644103050232,-6.93,-1.0,-0.5,7.01
8.856528997421265,-6.8,-1.69,-0.55,7.02
8.869133949279785,-6.64,-2.5,-0.49,7.11
8.886541843414307,-6.37,-3.32,-0.37,7.19
8.88716983795166,-6.09,-4.08,-0.12,7.33
8.896481990814209,-5.85,-4.65,0.31,7.47
8.906373977661133,-5.69,-5.11,0.79,7.68
8.919274806976318,-5.65,-5.57,1.17,8.01
8.939032077789307,-5.63,-6.1,1.3,8.4
8.939670085906982,-5.65,-6.77,1.31,8.91
8.94628095626831,-5.63,-7.31,1.34,9.32
8.956418991088867,-5.46,-7.7,1.25,9.52
8.968164920806885,-5.22,-7.98,1.15,9.6
8.985641956329346,-5.0,-8.2,1.02,9.65
8.986662864685059,-4.7,-8.38,0.88,9.64
8.996313095092773,-4.41,-8.47,0.73,9.57
9.00646686553955,-4.24,-8.57,0.49,9.57
9.018219947814941,-4.12,-8.71,0.26,9.63
9.03770112991333,-4.01,-8.81,-0.01,9.67
9.038341045379639,-3.99,-8.86,-0.3,9.72
9.04618501663208,-3.9,-8.91,-0.45,9.73
9.056442975997925,-3.62,-8.98,-0.43,9.69
9.06903886795044,-3.26,-8.99,-0.3,9.56
9.08655309677124,-2.96,-8.93,-0.18,9.4
9.08718204498291,-2.79,-8.82,-0.11,9.25
9.096302032470703,-2.79,-8.62,-0.08,9.06
9.10641598701477,-2.94,-8.37,-0.08,8.87
9.119280815124512,-3.1,-8.07,-0.18,8.64
9.135896921157837,-3.33,-7.74,-0.27,8.43
9.136924028396606,-3.59,-7.27,-0.33,8.11
9.146413803100586,-3.76,-6.66,-0.4,7.65
9.156578063964844,-3.96,-6.11,-0.39,7.29
9.168920040130615,-4.26,-5.72,-0.41,7.14
9.18677806854248,-4.57,-5.4,-0.44,7.08
9.187405109405518,-4.51,-4.94,-0.65,6.72
9.196358919143677,-4.33,-4.35,-1.05,6.22
9.206496953964233,-4.37,-3.62,-1.07,5.77
9.218329906463623,-4.61,-2.59,-0.91,5.36
9.238203048706055,-5.14,-1.55,-0.79,5.42
9.238847970962524,-6.02,-0.81,-0.67,6.11
9.246438026428223,-6.88,-0.25,-0.63,6.91
9.25659704208374,-7.42,0.23,-0.59,7.44
9.268278121948242,-7.55,0.68,-0.3,7.58
9.286756038665771,-6.99,1.08,0.16,7.07
9.287390947341919,-6.47,1.5,0.46,6.65
9.296441078186035,-6.33,1.99,0.73,6.67
9.306617021560669,-6.37,2.68,1.0,6.98
9.318295001983643,-6.71,3.27,0.89,7.51
9.336951971054077,-7.2,3.66,0.57,8.09
9.33757495880127,-7.1,3.85,0.1,8.07
9.348534107208252,-6.51,3.94,-0.29,7.61
9.356636047363281,-5.93,4.11,-0.34,7.22
9.36847996711731,-5.68,4.52,-0.21,7.26
9.38918685913086,-5.81,4.82,-0.24,7.55
9.389820098876953,-5.72,5.07,-0.29,7.64
9.39653992652893,-4.99,5.39,-0.14,7.34
9.406712055206299,-4.17,5.73,-0.11,7.08
9.418399810791016,-3.49,6.16,-0.16,7.08
9.43584394454956,-2.73,6.72,-0.32,7.26
9.436842918395996,-1.75,7.26,-0.62,7.49
9.446579933166504,-1.07,7.66,-0.97,7.79
9.456542015075684,-0.89,7.72,-1.65,7.94
9.469051837921143,-0.76,7.57,-2.25,7.93
9.487982034683228,-0.34,7.72,-2.51,8.12
9.488624095916748,0.18,8.11,-2.23,8.41
9.496932983398438,0.55,8.32,-1.66,8.5
9.506618976593018,1.13,8.32,-0.91,8.44
9.51966905593872,1.61,8.34,-0.07,8.49
9.54084587097168,2.11,8.33,0.95,8.64
9.541481018066406,2.58,8.3,1.58,8.83
9.54651689529419,2.82,8.46,2.05,9.15
9.556661128997803,3.17,8.89,2.31,9.71
9.56855297088623,3.23,9.24,2.33,10.06
9.58946180343628,2.96,9.22,2.22,9.93
9.590098857879639,2.55,9.09,2.13,9.67
9.596604824066162,2.34,8.91,2.02,9.43
9.606719970703125,2.43,8.6,1.94,9.14
9.618451118469238,2.58,8.35,1.98,8.96
9.638815879821777,2.62,8.15,2.14,8.82
9.639436960220337,2.5,8.11,2.37,8.81
9.646666049957275,2.26,8.19,2.51,8.85
9.656765937805176,1.88,8.1,2.41,8.65
9.668493032455444,1.28,7.85,2.08,8.22
9.687618017196655,0.69,7.59,1.68,7.8
9.68824291229248,0.36,7.12,1.34,7.25
9.696621894836426,0.24,6.47,1.12,6.57
9.706798076629639,0.16,5.87,1.0,5.95
9.719689846038818,0.03,5.63,0.88,5.69
9.736178874969482,-0.4,5.92,0.56,5.95
9.737190961837769,-1.18,6.38,-0.09,6.48
9.746646881103516,-2.49,6.61,-1.3,7.18
9.756717920303345,-3.67,6.61,-2.19,7.87
9.76956295967102,-4.08,6.48,-2.51,8.05
9.788856983184814,-4.11,6.38,-2.34,7.94
9.789494037628174,-4.34,6.24,-1.85,7.82
9.796682834625244,-4.79,5.89,-1.39,7.71
9.80685806274414,-5.31,5.42,-1.09,7.66
9.818684101104736,-5.79,4.94,-0.84,7.65
9.83765196800232,-6.37,4.45,-0.42,7.78
9.838283061981201,-6.97,3.95,0.2,8.01
9.846712112426758,-7.47,3.4,0.85,8.25
9.856825828552246,-7.8,2.66,1.32,8.34
9.869709968566895,-7.96,1.81,1.57,8.31
9.888558864593506,-7.96,1.03,1.55,8.17
9.889171123504639,-8.02,0.56,1.47,8.17
9.89676809310913,-8.17,0.19,1.23,8.26
9.906857013702393,-8.19,-0.47,0.7,8.23
9.918653011322021,-7.96,-1.45,0.05,8.09
9.93846082687378,-7.56,-2.45,-0.3,7.95
9.939090967178345,-7.0,-3.28,-0.24,7.73
9.94680404663086,-6.47,-4.01,-0.01,7.61
9.956879138946533,-6.11,-4.71,0.19,7.71
9.96973705291748,-5.89,-5.46,0.44,8.04
9.985619068145752,-5.78,-6.02,0.76,8.38
9.986885070800781,-5.64,-6.41,1.06,8.6
9.996747970581055,-5.64,-6.78,1.26,8.9
10.006942987442017,-5.78,-7.11,1.3,9.25
10.018654823303223,-5.78,-7.44,1.26,9.5
10.036056995391846,-5.55,-7.81,1.11,9.64
10.037081003189087,-5.23,-8.16,0.85,9.72
10.046688079833984,-4.97,-8.37,0.52,9.74
10.05683708190918,-4.7,-8.48,0.21,9.69
10.068571090698242,-4.53,-8.53,-0.04,9.65
10.085544109344482,-4.3,-8.61,-0.27,9.62
10.086750030517578,-4.09,-8.77,-0.46,9.68
10.09677505493164,-3.84,-8.99,-0.61,9.79
10.106924057006836,-3.58,-9.17,-0.73,9.87
10.118558883666992,-3.36,-9.33,-0.78,9.94
10.135930061340332,-3.23,-9.46,-0.83,10.03
10.136928081512451,-3.3,-9.45,-0.89,10.04
10.146785974502563,-3.38,-9.39,-0.81,10.01
10.157004833221436,-3.36,-9.32,-0.72,9.93
10.168673038482666,-3.36,-9.28,-0.7,9.89
10.187835931777954,-3.52,-9.27,-0.91,9.95
10.188457012176514,-3.61,-9.26,-1.25,10.01
10.196979999542236,-3.71,-9.1,-1.54,9.94
10.206976890563965,-3.87,-8.75,-1.77,9.72
10.219620943069458,-4.24,-8.26,-1.76,9.45
10.236370086669922,-4.48,-7.63,-1.21,8.93
10.237376928329468,-4.49,-6.8,-0.51,8.16
10.246809959411621,-4.77,-5.93,0.12,7.61
10.256994009017944,-5.56,-4.99,0.59,7.49
10.268826007843018,-6.55,-3.85,0.92,7.65
10.288949012756348,-7.22,-2.77,1.1,7.81
10.289574146270752,-7.6,-2.08,1.23,7.97
10.296916961669922,-7.62,-1.62,1.25,7.88
10.307033061981201,-7.41,-1.07,1.24,7.58
10.318799018859863,-7.35,-0.31,1.35,7.47
10.33609914779663,-7.25,0.82,1.49,7.44
10.337118148803711,-7.37,2.11,1.44,7.8
10.346901893615723,-7.99,3.46,1.02,8.76
10.356992959976196,-8.63,4.39,0.1,9.68
10.368782997131348,-9.23,4.95,-1.02,10.52
10.385450839996338,-9.57,5.71,-1.84,11.29
10.38697099685669,-8.74,6.3,-2.61,11.08
10.396981954574585,-7.85,6.38,-2.66,10.45
10.407073020935059,-7.2,6.27,-2.01,9.75
10.418703079223633,-6.31,6.22,-1.04,8.92
10.436352968215942,-5.68,5.9,-0.3,8.19
10.437357902526855,-5.09,5.67,0.02,7.61
10.44692611694336,-4.39,5.85,0.14,7.31
10.457005977630615,-3.95,6.39,0.06,7.51
10.468971967697144,-3.54,6.74,-0.4,7.62
10.485844135284424,-2.87,6.73,-0.79,7.35
10.48704195022583,-2.23,6.72,-0.94,7.14
10.496975898742676,-1.3,6.78,-0.73,6.94
10.507154941558838,-0.55,6.96,-0.47,6.99
10.518877983093262,-0.01,7.14,-0.07,7.14
10.53749704360962,0.4,7.23,0.25,7.24
10.538120985031128,0.82,7.37,0.45,7.42
10.547007083892822,1.32,7.55,0.81,7.7
10.557235956192017,1.68,7.62,1.3,7.91
10.568874835968018,1.92,7.8,1.68,8.2
10.587527990341187,2.25,8.15,2.05,8.69
10.588166952133179,2.6,8.48,2.42,9.19
10.597543001174927,2.99,8.77,2.63,9.63
10.607188940048218,3.26,8.94,2.58,9.85
10.618865966796875,3.44,9.14,2.51,10.08
10.635844945907593,3.53,9.62,2.52,10.55
10.637014865875244,3.1,9.87,2.41,10.62
10.647056102752686,2.49,9.59,2.28,10.16
10.657188892364502,1.64,9.4,2.09,9.76
10.66890001296997,0.96,9.26,1.96,9.51
10.685305118560791,0.6,8.87,1.96,9.1
10.687067985534668,0.5,8.5,2.11,8.77
10.697160959243774,0.56,8.29,2.42,8.65
10.707190990447998,0.61,8.05,2.74,8.52
10.718930006027222,0.45,7.98,2.97,8.52
10.737421035766602,0.05,8.38,2.87,8.85
10.738050937652588,-0.8,8.84,2.3,9.16
10.747089862823486,-1.62,9.1,1.49,9.36
10.757198810577393,-2.2,9.28,0.44,9.54
10.768975019454956,-2.71,9.29,-0.68,9.7
10.78635311126709,-3.18,8.9,-1.94,9.64
10.787374019622803,-3.22,8.22,-2.96,9.31
10.797137022018433,-2.86,7.89,-3.39,9.05
10.807305812835693,-2.76,7.9,-3.31,8.99
10.819033145904541,-3.26,7.66,-3.25,8.93
10.836046934127808,-4.23,7.0,-3.27,8.8
10.837232112884521,-5.32,6.31,-3.14,8.83
10.847162008285522,-6.21,5.61,-2.75,8.8
10.8572678565979,-6.96,4.78,-2.26,8.74
10.868937015533447,-7.61,3.94,-1.68,8.73
10.885424137115479,-8.16,3.14,-1.1,8.81
10.887066841125488,-8.68,2.31,-0.71,9.01
10.897142887115479,-9.14,1.51,-0.34,9.27
10.90723705291748,-9.51,0.88,0.12,9.55
10.91895580291748,-9.86,0.28,0.48,9.87
10.936191082000732,-10.13,-0.62,0.75,10.17
10.937216997146606,-10.18,-1.77,1.05,10.38
10.947250843048096,-9.97,-2.86,1.3,10.45
10.957271099090576,-9.53,-3.79,1.58,10.37
10.96912693977356,-8.95,-4.6,1.93,10.24
10.986141920089722,-8.37,-5.39,2.15,10.18
10.987167835235596,-7.83,-6.08,2.18,10.15
10.997178077697754,-7.4,-6.69,2.11,10.19
11.007390975952148,-6.97,-7.29,1.97,10.27
11.01908802986145,-6.54,-7.65,1.71,10.2
11.037550926208496,-6.13,-7.83,1.42,10.04
11.038188934326172,-5.74,-7.87,1.13,9.8
11.047271013259888,-5.25,-7.84,0.79,9.46
11.057318925857544,-4.7,-7.79,0.53,9.11
11.069092988967896,-4.4,-7.65,0.29,8.82
11.085246086120605,-4.39,-7.5,-0.01,8.69
11.087305068969727,-4.41,-7.51,-0.21,8.71
11.097248077392578,-4.41,-7.63,-0.33,8.81
11.107428073883057,-4.48,-7.67,-0.41,8.89
11.119111061096191,-4.44,-7.71,-0.44,8.9
11.13612413406372,-4.34,-7.81,-0.41,8.94
11.137216091156006,-4.17,-7.94,-0.41,8.97
11.147297859191895,-3.88,-8.12,-0.36,9.0
11.157373905181885,-3.58,-8.24,-0.25,8.98
11.169013023376465,-3.35,-8.27,-0.14,8.92
11.18809199333191,-3.22,-8.27,-0.06,8.87
11.188714027404785,-3.18,-8.25,-0.01,8.84
11.197414875030518,-3.32,-8.25,0.06,8.89
11.207430839538574,-3.64,-8.21,0.1,8.98
11.219091892242432,-4.03,-8.03,0.09,8.98
11.238999843597412,-4.34,-7.87,0.18,8.98
11.239629983901978,-4.38,-7.78,0.27,8.93
11.24732780456543,-4.16,-7.64,0.16,8.7
11.257442951202393,-3.79,-7.46,-0.01,8.36
11.269145011901855,-3.46,-7.33,-0.14,8.1
11.286144971847534,-3.32,-7.18,-0.2,7.91
11.287473917007446,-3.41,-6.96,-0.27,7.75
11.297488927841187,-3.66,-6.54,-0.42,7.5
11.307418823242188,-4.22,-5.87,-0.54,7.24
11.319185972213745,-5.16,-4.88,-0.66,7.13
11.338601112365723,-6.13,-3.7,-0.79,7.2
11.339226961135864,-7.19,-2.48,-0.94,7.66
11.347283840179443,-8.06,-1.48,-0.94,8.24
11.35745906829834,-8.58,-0.4,-0.69,8.61
11.369196891784668,-8.71,0.73,-0.2,8.74
11.386231899261475,-8.64,1.63,0.15,8.79
11.388650894165039,-8.49,2.05,0.27,8.73
11.397532939910889,-8.23,2.12,0.2,8.5
11.407519817352295,-7.98,2.27,0.13,8.29
11.420527935028076,-7.71,2.55,0.09,8.12
11.438360929489136,-7.33,2.78,0.06,7.83
11.438991069793701,-7.14,3.14,-0.2,7.8
11.447568893432617,-7.07,3.85,-0.62,8.07
11.45745301246643,-6.91,4.93,-1.13,8.56
11.469260931015015,-6.72,5.64,-1.92,8.98
11.48625898361206,-6.46,5.61,-2.9,9.03
11.487442016601562,-5.76,5.48,-3.39,8.64
11.497514963150024,-5.07,5.49,-3.17,8.11
11.507652997970581,-4.31,5.57,-2.52,7.48
11.519202947616577,-3.57,5.69,-1.76,6.94
11.536736965179443,-3.19,5.71,-0.98,6.61
11.537757873535156,-3.04,6.06,-0.4,6.79
11.54741096496582,-3.22,6.65,0.11,7.38
11.557519912719727,-3.41,7.06,0.33,7.84
11.569263935089111,-3.46,7.34,0.35,8.12
11.588365077972412,-2.85,7.58,0.57,8.11
11.588984966278076,-1.85,7.53,1.06,7.82
11.597440958023071,-1.02,7.53,1.41,7.72
11.607487916946411,-0.19,7.53,1.59,7.69
11.619248867034912,0.51,7.6,1.64,7.79
11.63641095161438,1.18,7.74,1.64,7.99
11.637428998947144,1.44,8.05,1.74,8.36
11.647570133209229,1.61,8.48,1.84,8.82
11.657634019851685,2.07,8.75,2.0,9.21
11.669337034225464,2.69,9.06,2.19,9.7
11.685773849487305,3.02,9.43,2.23,10.14
11.687435150146484,2.94,9.7,2.01,10.33
11.697493076324463,2.46,9.73,1.59,10.16
11.707602977752686,1.89,9.5,1.21,9.76
11.719413995742798,1.71,9.29,1.42,9.55
11.738487958908081,1.65,9.34,1.55,9.61
11.739123821258545,1.47,9.21,1.56,9.45
11.747497081756592,1.32,8.89,1.47,9.1
11.757580995559692,0.99,8.68,1.46,8.85
11.7705659866333,0.46,8.65,1.54,8.79
11.785818099975586,0.11,8.37,1.46,8.49
11.787478923797607,-0.25,8.01,1.21,8.1
11.79758095741272,-0.79,7.95,0.91,8.04
11.808270931243896,-1.42,7.77,0.58,7.91
11.819514989852905,-1.84,7.47,0.24,7.69
11.835690021514893,-2.12,7.24,0.18,7.54
11.837603092193604,-2.2,7.2,0.47,7.54
11.84752607345581,-2.39,7.28,0.76,7.69
11.858266830444336,-2.95,7.35,0.7,7.95
11.86943006515503,-3.63,6.97,0.39,7.86
11.8854660987854,-4.57,6.28,-0.23,7.77
11.887642860412598,-5.53,5.96,-1.08,8.2
11.897620916366577,-6.31,5.92,-1.87,8.85
11.908413887023926,-7.23,5.96,-2.58,9.71
11.919424057006836,-7.95,5.73,-3.22,10.31
11.935770034790039,-8.27,5.13,-3.51,10.34
11.93773102760315,-8.28,4.48,-3.38,10.0
11.947679042816162,-8.21,3.95,-2.89,9.55
11.95842695236206,-8.36,3.33,-2.52,9.34
11.969344139099121,-8.6,2.54,-2.39,9.28
11.98544192314148,-8.71,1.68,-2.25,9.15
11.987672805786133,-8.74,0.82,-1.96,8.99
11.997672080993652,-8.8,0.03,-1.36,8.9
12.008524894714355,-8.82,-0.77,-0.72,8.88
12.019497871398926,-8.67,-1.63,-0.22,8.82
12.037523984909058,-8.64,-2.31,0.18,8.94
12.038158893585205,-8.4,-2.95,0.38,8.91
12.047636985778809,-7.92,-3.76,0.34,8.77
12.058319091796875,-7.4,-4.58,0.46,8.71
12.069447994232178,-6.86,-5.28,0.69,8.68
12.086229801177979,-6.35,-5.88,0.92,8.7
12.087614059448242,-5.99,-6.47,1.17,8.89
12.097644805908203,-5.81,-6.92,1.36,9.13
12.108422994613647,-5.51,-7.28,1.34,9.22
12.119412899017334,-5.21,-7.71,1.2,9.38
12.135899066925049,-4.98,-8.04,1.11,9.52
12.137672901153564,-4.65,-8.25,1.0,9.52
12.147684097290039,-4.35,-8.46,0.92,9.55
12.158437967300415,-4.07,-8.68,0.75,9.61
12.16947889328003,-3.82,-8.85,0.42,9.64
12.185553073883057,-3.62,-8.88,0.14,9.59
12.187678813934326,-3.41,-8.82,-0.1,9.45
12.197715997695923,-3.32,-8.65,-0.39,9.27
12.20847201347351,-3.35,-8.45,-0.72,9.11
12.219573020935059,-3.54,-8.32,-1.02,9.09
12.235198974609375,-3.68,-8.23,-1.12,9.08
12.237955093383789,-3.73,-8.19,-1.0,9.05
12.247696876525879,-3.76,-7.97,-0.63,8.83
12.258394002914429,-3.6,-7.63,-0.23,8.43
12.269635915756226,-3.44,-7.41,0.05,8.16
12.285585880279541,-3.5,-7.19,0.18,7.99
12.28780198097229,-3.66,-6.82,0.13,7.74
12.297791004180908,-3.83,-6.39,0.06,7.45
12.308489799499512,-3.97,-6.01,-0.07,7.2
12.31961703300476,-4.07,-5.68,-0.27,6.99
12.335065841674805,-4.23,-5.44,-0.58,6.91
12.337736129760742,-4.37,-5.35,-0.86,6.96
12.347814083099365,-4.21,-5.19,-0.87,6.73
12.358418941497803,-3.89,-4.76,-0.64,6.18
12.36959195137024,-3.73,-4.04,-0.19,5.5
12.38568115234375,-3.78,-3.24,0.36,4.99
12.387761116027832,-3.79,-2.53,0.82,4.63
12.397801876068115,-4.02,-1.82,0.92,4.5
12.40847897529602,-4.35,-1.28,0.71,4.58
12.419631004333496,-4.53,-0.88,0.28,4.62
12.43514108657837,-4.6,-0.75,-0.28,4.66
12.437789916992188,-4.57,-0.67,-0.92,4.7
12.447832107543945,-4.34,-0.66,-1.26,4.56
12.45831298828125,-4.06,-0.48,-1.39,4.31
12.469650030136108,-4.05,0.23,-1.14,4.21
12.485782146453857,-4.18,0.92,-0.95,4.38
12.487811088562012,-4.32,1.2,-0.94,4.58
12.497899055480957,-4.3,1.33,-0.96,4.6
12.508270978927612,-4.19,1.31,-0.9,4.48
12.519673824310303,-4.16,1.28,-0.53,4.38
12.536180973052979,-4.3,1.32,-0.02,4.49
12.537766933441162,-4.45,1.4,0.44,4.68
12.547857999801636,-4.61,1.56,0.74,4.92
12.558210849761963,-4.6,1.82,0.88,5.02
12.570856094360352,-4.16,2.2,0.76,4.76
12.585555076599121,-3.62,2.66,0.4,4.5
12.587875843048096,-3.27,3.29,-0.1,4.63
12.597908020019531,-3.23,4.01,-0.7,5.19
12.608196020126343,-3.25,4.63,-1.05,5.75
12.619800090789795,-3.14,5.31,-1.04,6.25
12.635961055755615,-2.83,6.08,-0.9,6.76
12.637927055358887,-2.38,6.78,-0.58,7.2
12.64788007736206,-1.75,7.4,-0.12,7.6
12.658252000808716,-1.22,8.14,0.15,8.23
12.669766902923584,-0.84,8.74,0.26,8.78
12.685101985931396,-0.35,9.1,0.38,9.11
12.688010931015015,0.17,9.51,0.56,9.52
12.697929859161377,0.64,10.12,0.63,10.15
12.70792007446289,1.12,10.8,0.74,10.88
12.71983003616333,1.43,11.14,0.82,11.26
12.735424041748047,1.55,11.34,1.0,11.48
12.737869024276733,1.77,11.29,1.05,11.47
12.747878074645996,2.18,11.08,0.94,11.33
12.758116006851196,2.54,10.6,0.83,10.93
12.769696950912476,2.9,10.17,0.8,10.6
12.784463882446289,2.91,9.72,0.97,10.19
12.7880539894104,2.56,9.38,0.79,9.75
12.797989845275879,1.97,8.88,0.29,9.1
12.808097839355469,1.53,8.21,0.11,8.35
12.819844007492065,1.29,7.82,0.1,7.92
12.834200859069824,1.11,7.52,0.18,7.6
12.837981939315796,0.93,7.1,0.27,7.16
12.847991943359375,0.7,6.73,0.39,6.77
12.857871055603027,0.36,6.37,0.4,6.39
12.869822978973389,-0.13,6.07,0.33,6.08
12.884318828582764,-0.66,5.98,0.25,6.02
12.887864112854004,-1.22,5.87,0.17,5.99
12.897993087768555,-1.85,5.82,0.08,6.1
12.907882928848267,-2.49,5.85,-0.11,6.35
12.919919967651367,-2.93,5.75,-0.27,6.45
12.935224056243896,-3.29,5.39,-0.53,6.33
12.938064098358154,-3.4,4.89,-0.82,6.01
12.948004961013794,-3.39,4.47,-0.87,5.67
12.958012104034424,-3.62,4.3,-0.76,5.67
12.969925880432129,-4.28,4.29,-0.59,6.08
12.984764099121094,-4.93,4.21,-0.68,6.51
12.988078117370605,-5.58,4.05,-0.95,6.95
12.998065948486328,-6.35,3.65,-0.82,7.37
13.007914066314697,-6.87,2.99,-0.44,7.5
13.019865989685059,-7.07,2.11,-0.06,7.37
13.03476095199585,-7.23,1.09,0.34,7.31
13.037964820861816,-7.15,0.11,0.65,7.18
13.048120021820068,-7.01,-0.71,0.88,7.1
13.057955026626587,-6.94,-1.44,0.99,7.15
13.069867134094238,-6.84,-2.08,0.94,7.21
13.084527015686035,-6.68,-2.63,0.93,7.23
13.087983131408691,-6.56,-3.24,0.88,7.36
13.097983837127686,-6.45,-3.98,0.82,7.62
13.10799789428711,-6.26,-4.8,0.69,7.91
13.1198890209198,-5.96,-5.5,0.7,8.14
13.135187149047852,-5.58,-6.04,0.84,8.26
13.137918949127197,-5.11,-6.47,0.98,8.3
13.14813494682312,-4.62,-6.83,1.11,8.32
13.158009052276611,-4.15,-7.07,1.18,8.28
13.169901847839355,-3.91,-7.25,1.11,8.31
13.18501091003418,-3.83,-7.35,0.91,8.33
13.188156127929688,-3.82,-7.26,0.62,8.22
13.198093891143799,-3.67,-7.18,0.28,8.06
13.208039999008179,-3.58,-7.21,-0.13,8.05
13.219977855682373,-3.49,-7.26,-0.51,8.07
13.235238075256348,-3.15,-7.27,-0.7,7.95
13.238134860992432,-2.76,-7.23,-0.78,7.77
13.248138904571533,-2.48,-7.23,-0.85,7.69
13.258280992507935,-2.34,-7.3,-0.91,7.71
13.269943952560425,-2.39,-7.27,-1.01,7.71
13.284984111785889,-2.42,-7.07,-1.08,7.55
13.288106918334961,-2.39,-6.84,-1.14,7.33
13.298182010650635,-2.5,-6.63,-1.08,7.16
13.30823802947998,-2.51,-6.41,-0.97,6.95
13.319983005523682,-2.57,-6.17,-0.96,6.75
13.335740089416504,-2.71,-5.84,-1.03,6.52
13.338186025619507,-2.7,-5.6,-1.19,6.32
13.348308086395264,-2.69,-5.43,-1.25,6.18
13.358309984207153,-2.61,-5.19,-1.17,5.92
13.370044946670532,-2.56,-4.87,-0.88,5.57
13.385025024414062,-2.54,-4.49,-0.44,5.17
13.388197898864746,-2.5,-4.06,-0.15,4.77
13.398229122161865,-2.62,-3.69,-0.17,4.52
13.408275127410889,-2.96,-3.4,-0.48,4.53
13.420089960098267,-3.32,-3.24,-1.0,4.74
13.435461044311523,-3.44,-3.18,-1.51,4.92
13.438146114349365,-3.24,-3.04,-1.53,4.69
13.448223114013672,-2.84,-2.77,-0.99,4.08
13.458291053771973,-2.67,-2.58,-0.37,3.73
13.470179080963135,-3.03,-2.38,0.07,3.85
13.485311031341553,-3.52,-1.95,0.34,4.03
13.488173007965088,-3.98,-1.33,0.57,4.23
13.498317956924438,-4.41,-0.65,0.81,4.53
13.508342981338501,-4.75,-0.09,0.89,4.83
13.520184993743896,-4.97,0.25,0.8,5.04
13.534560918807983,-5.0,0.59,0.64,5.07
13.538206100463867,-4.81,1.01,0.31,4.92
13.548277854919434,-4.38,1.59,-0.15,4.66
13.558300018310547,-4.01,2.2,-0.78,4.63
13.570091962814331,-3.76,2.54,-1.26,4.7
13.584780931472778,-3.71,2.81,-1.38,4.85
13.588300943374634,-3.84,3.13,-1.04,5.06
13.598400115966797,-3.78,3.59,-0.27,5.22
13.60825800895691,-3.58,4.15,0.46,5.5
13.620715141296387,-3.55,4.6,0.85,5.87
13.63466215133667,-3.65,4.74,0.94,6.05
13.638239860534668,-3.47,4.69,0.72,5.87
13.648239135742188,-2.96,4.62,0.33,5.49
13.658390045166016,-2.24,4.73,0.01,5.23
13.670140027999878,-1.51,4.85,-0.24,5.08
13.684577941894531,-0.97,4.83,-0.45,4.94
13.688174962997437,-0.62,4.85,-0.64,4.93
13.69831395149231,-0.45,5.09,-0.78,5.16
13.708285808563232,-0.39,5.47,-0.76,5.53
13.720173835754395,-0.19,5.85,-0.51,5.87
13.734679937362671,0.26,6.18,0.01,6.18
13.738270998001099,0.69,6.47,0.63,6.53
13.748353958129883,1.08,6.82,1.26,7.01
13.758364915847778,1.46,7.25,1.82,7.61
13.770172119140625,1.74,7.91,2.16,8.38
13.784210920333862,1.99,8.47,2.4,9.02
13.788177967071533,2.16,8.9,2.54,9.5
13.79833698272705,2.22,9.5,2.66,10.11
13.808257102966309,2.22,10.02,2.65,10.59
13.820146083831787,2.02,10.29,2.5,10.78
13.83424186706543,1.69,10.43,2.29,10.81
13.838156938552856,1.34,10.26,2.05,10.54
13.848407983779907,0.97,9.7,1.84,9.92
13.858444929122925,0.72,9.01,1.71,9.19
13.870305061340332,0.73,8.37,1.72,8.57
13.883615016937256,0.79,7.72,1.73,7.95
13.888411045074463,0.65,7.22,1.72,7.45
13.898417949676514,0.3,6.95,1.63,7.14
13.908453941345215,-0.32,6.7,1.42,6.85
13.920357942581177,-0.74,6.4,1.25,6.56
13.93520212173462,-1.14,6.12,1.21,6.34
13.938362121582031,-1.77,5.77,1.14,6.14
13.948445796966553,-2.42,5.36,1.02,5.96
13.958404064178467,-2.97,4.9,0.72,5.77
13.970219135284424,-3.46,4.29,0.36,5.52
13.98542308807373,-3.74,3.9,0.32,5.41
13.988422870635986,-3.73,3.5,0.14,5.11
13.998461961746216,-4.06,2.73,0.2,4.89
14.008687019348145,-4.36,2.01,0.59,4.83
14.020298957824707,-4.56,1.57,0.88,4.9
14.034909963607788,-4.93,1.33,1.17,5.23
14.03835391998291,-4.95,0.95,0.89,5.11
14.048552989959717,-5.15,0.38,0.44,5.18
14.058593034744263,-5.45,-0.22,0.19,5.45
14.07028579711914,-5.64,-0.78,-0.02,5.69
14.085003852844238,-5.67,-1.25,-0.01,5.8
14.088413953781128,-5.7,-1.84,0.02,5.98
14.09842300415039,-5.93,-2.49,0.2,6.43
14.10849905014038,-5.73,-2.88,0.26,6.41
14.120373964309692,-5.15,-3.21,0.27,6.07
14.134469985961914,-4.77,-3.67,0.29,6.02
14.138352870941162,-4.54,-4.25,0.2,6.22
14.148550033569336,-4.29,-4.69,0.01,6.35
14.158545970916748,-4.13,-4.98,-0.27,6.47
14.170374870300293,-3.82,-5.17,-0.61,6.45
14.18453311920166,-3.4,-5.33,-0.97,6.39
14.188407897949219,-3.1,-5.65,-1.42,6.59
14.198578834533691,-2.96,-6.06,-1.66,6.94
14.208529949188232,-2.98,-6.15,-1.54,7.0
14.220404148101807,-2.74,-6.11,-1.35,6.83
14.23355484008789,-2.53,-6.21,-1.14,6.8
14.238655090332031,-2.47,-6.3,-0.95,6.83
14.248575925827026,-2.44,-6.3,-0.81,6.8
14.25863790512085,-2.58,-6.23,-0.84,6.79
14.27046799659729,-2.62,-6.16,-1.05,6.77
14.283595085144043,-2.53,-6.1,-1.31,6.73
14.288396835327148,-2.27,-6.08,-1.78,6.72
14.298609018325806,-2.04,-6.17,-2.1,6.82
14.308584928512573,-1.86,-6.36,-2.31,7.01
14.320021152496338,-1.72,-6.47,-2.35,7.09
14.333692073822021,-1.65,-6.46,-2.25,7.03
14.338539123535156,-1.7,-6.5,-2.02,7.01
14.348622798919678,-1.82,-6.5,-1.66,6.95
14.358667850494385,-1.87,-6.33,-1.31,6.72
14.370521068572998,-1.9,-6.13,-1.08,6.5
14.384971141815186,-1.9,-6.06,-0.83,6.4
14.388630867004395,-1.94,-5.78,-0.58,6.12
14.398758888244629,-1.95,-5.52,-0.66,5.89
14.408647060394287,-2.33,-5.27,-0.68,5.8
14.420477867126465,-2.66,-4.62,-0.66,5.37
14.433682918548584,-2.74,-3.91,-0.78,4.83
14.438509941101074,-3.01,-3.4,-0.74,4.6
14.448738098144531,-3.18,-2.96,-0.58,4.38
14.458693027496338,-3.32,-2.62,-0.58,4.26
14.470590114593506,-3.62,-2.51,-0.61,4.44
14.483731031417847,-3.85,-2.54,-0.6,4.65
14.488650798797607,-3.9,-2.71,-0.6,4.78
14.498703956604004,-3.94,-2.8,-0.41,4.85
14.508709907531738,-3.92,-2.3,0.24,4.55
14.521759986877441,-3.87,-1.49,0.58,4.18
14.535544872283936,-4.41,-1.28,0.08,4.59
14.538691997528076,-4.98,-1.41,-0.21,5.18
14.548684120178223,-4.87,-1.25,-0.32,5.03
14.558735847473145,-4.44,-0.97,-0.41,4.56
14.570542812347412,-4.18,-0.75,-0.47,4.27
14.583132982254028,-4.0,-0.62,-0.56,4.08
14.58859395980835,-4.14,-0.42,-0.78,4.23
14.598719120025635,-4.5,0.08,-0.69,4.55
14.60871696472168,-4.85,0.98,-0.46,4.96
14.620593070983887,-5.21,2.0,-0.77,5.63
14.634129047393799,-5.42,2.75,-1.14,6.18
14.63869595527649,-5.01,3.11,-1.43,6.06
14.648687839508057,-4.17,3.29,-1.33,5.47
14.658818006515503,-3.51,3.55,-0.85,5.06
14.67060399055481,-3.35,3.97,-0.25,5.2
14.684450149536133,-3.56,4.18,0.16,5.49
14.688622951507568,-3.63,4.37,0.38,5.69
14.698817014694214,-3.31,4.67,0.62,5.75
14.708826065063477,-2.79,5.1,0.8,5.86
14.720631122589111,-2.33,5.86,1.03,6.38
14.734225034713745,-2.03,6.68,0.99,7.05
14.73878812789917,-1.69,7.15,0.88,7.39
14.748824119567871,-1.27,7.36,0.96,7.53
14.758883953094482,-0.72,7.45,1.28,7.59
14.770740032196045,-0.19,7.64,1.76,7.84
14.784549951553345,0.33,7.82,2.3,8.15
14.788669109344482,0.72,7.81,2.71,8.29
14.798866987228394,1.04,7.71,2.87,8.29
14.808900833129883,1.24,7.75,2.77,8.32
14.820665836334229,1.14,8.13,2.53,8.59
14.834106922149658,1.06,8.82,2.37,9.19
14.839306831359863,1.08,9.3,2.11,9.59
14.848867893218994,1.14,9.29,2.02,9.57
14.85886001586914,1.43,9.45,2.08,9.78
14.870770931243896,1.52,9.61,2.19,9.97
14.883779048919678,1.14,9.45,2.1,9.74
14.88925313949585,0.52,9.03,1.79,9.22
14.898859024047852,0.11,8.62,1.57,8.76
14.90890097618103,-0.1,8.22,1.35,8.33
14.920323848724365,-0.38,7.92,1.2,8.01
14.933512926101685,-0.65,7.66,1.09,7.76
14.939219951629639,-0.65,7.45,1.03,7.54
14.948930978775024,-0.62,7.53,1.05,7.62
14.958816051483154,-0.39,7.6,1.13,7.69
14.970193862915039,-0.37,7.54,0.92,7.6
14.98262095451355,-0.91,7.48,0.7,7.56
14.98939299583435,-1.53,7.45,0.49,7.62
14.998857021331787,-2.26,7.25,0.36,7.6
15.008883953094482,-3.09,6.8,0.15,7.47
15.020354986190796,-3.68,6.21,-0.16,7.22
15.033285140991211,-4.18,5.65,-0.57,7.05
15.039186954498291,-4.71,5.09,-0.91,6.99
15.048794984817505,-4.91,4.39,-1.09,6.67
15.058908939361572,-5.05,3.78,-1.13,6.4
15.070106029510498,-5.25,3.26,-1.1,6.27
15.083172798156738,-5.48,2.64,-0.9,6.14
15.08936095237732,-5.63,1.96,-0.63,5.99
15.098856925964355,-5.83,1.39,-0.45,6.01
15.108943939208984,-6.2,0.89,-0.35,6.27
15.12032413482666,-6.59,0.39,-0.34,6.61
15.133802890777588,-6.81,-0.33,-0.5,6.83
15.139171123504639,-6.67,-1.17,-0.58,6.79
15.148943901062012,-6.39,-1.66,-0.45,6.61
15.159008026123047,-6.11,-1.86,-0.24,6.39
15.170722007751465,-5.91,-2.14,-0.16,6.28
15.183824062347412,-6.0,-2.48,-0.18,6.49
15.189343929290771,-6.16,-3.0,-0.25,6.85
15.19889211654663,-6.07,-3.78,-0.3,7.15
15.208942890167236,-5.86,-4.62,-0.13,7.46
15.220723152160645,-5.67,-5.24,0.25,7.72
15.234242916107178,-5.36,-5.77,0.58,7.89
15.239336967468262,-5.14,-6.2,0.94,8.1
15.248993873596191,-4.95,-6.54,1.23,8.29
15.259172916412354,-4.88,-6.76,1.32,8.44
15.270845890045166,-5.02,-7.0,1.31,8.71
15.283956050872803,-5.13,-7.28,1.21,8.98
15.289307117462158,-5.08,-7.45,0.9,9.06
15.299100875854492,-4.93,-7.58,0.51,9.05
15.309224128723145,-4.7,-7.79,0.23,9.1
15.320520877838135,-4.57,-8.01,-0.01,9.22
15.33406400680542,-4.56,-8.1,-0.21,9.29
15.339273929595947,-4.35,-8.14,-0.49,9.24
15.349076986312866,-3.98,-8.2,-0.76,9.14
15.3591628074646,-3.64,-8.18,-0.95,9.0
15.370956897735596,-3.47,-8.03,-1.09,8.81
15.384693145751953,-3.48,-7.86,-1.15,8.67
15.389219999313354,-3.68,-7.75,-1.04,8.64
15.399168014526367,-3.94,-7.64,-0.77,8.63
15.409106016159058,-4.15,-7.51,-0.41,8.59
15.420944929122925,-4.25,-7.34,0.11,8.48
15.435452938079834,-4.03,-7.01,0.45,8.09
15.439136028289795,-3.75,-6.58,0.58,7.59
15.449198007583618,-3.7,-6.27,0.52,7.29
15.459152936935425,-3.83,-6.11,0.33,7.21
15.470942974090576,-3.95,-5.95,0.26,7.14
15.48542308807373,-4.27,-5.63,0.2,7.06
15.489245891571045,-4.62,-5.26,0.23,7.0
15.499148845672607,-4.83,-4.87,0.42,6.87
15.509207963943481,-5.12,-4.39,0.53,6.76
15.520997047424316,-5.34,-4.12,0.65,6.77
15.535468101501465,-5.66,-4.16,0.68,7.05
15.53913688659668,-6.07,-4.27,0.71,7.45
15.549206018447876,-6.27,-4.34,0.96,7.68
15.55915880203247,-6.48,-4.2,1.26,7.82
15.570908069610596,-6.89,-3.64,1.55,7.94
15.584753036499023,-7.68,-2.6,1.57,8.25
15.589023113250732,-8.64,-1.72,1.32,8.9
15.59906792640686,-9.07,-0.88,1.19,9.18
15.609266996383667,-8.76,0.28,1.31,8.86
15.620594024658203,-8.22,1.51,1.5,8.49
15.634761810302734,-8.04,2.89,1.51,8.67
15.639076948165894,-8.1,4.28,0.87,9.2
15.649170875549316,-8.21,5.48,-0.11,9.87
15.661183834075928,-8.06,6.44,-1.06,10.37
15.67055082321167,-7.19,7.3,-1.78,10.39
15.683571815490723,-5.79,8.39,-1.91,10.37
15.689098834991455,-4.16,9.64,-1.79,10.65
15.699294090270996,-2.79,10.55,-2.03,11.09
15.709275007247925,-1.68,11.06,-2.67,11.5
15.720621109008789,-0.99,11.48,-3.29,11.98
15.734117984771729,-0.49,11.94,-3.59,12.47
15.73905897140503,0.05,12.22,-3.43,12.69
15.749172925949097,0.86,12.46,-2.77,12.79
15.75927996635437,1.7,12.83,-1.97,13.09
15.770606994628906,2.28,13.0,-1.3,13.26
15.784000873565674,2.56,12.75,-0.74,13.02
15.789084911346436,2.77,12.26,-0.51,12.57
15.799374103546143,3.21,11.81,-0.23,12.24
15.809308052062988,3.37,11.59,0.09,12.07
15.821090936660767,3.03,11.45,0.53,11.85
15.835060119628906,2.61,11.18,1.08,11.53
15.839128971099854,2.16,10.93,1.38,11.22
15.849201917648315,1.49,10.49,1.23,10.66
15.859369993209839,1.09,9.68,1.22,9.81
15.871187925338745,1.33,8.88,1.25,9.06
15.884964942932129,1.65,8.29,1.1,8.52
15.889060020446777,1.49,7.72,0.96,7.92
15.899178981781006,1.24,7.29,0.81,7.43
15.909235000610352,0.97,7.08,0.77,7.18
15.921133995056152,0.58,7.11,0.83,7.18
15.934973001480103,0.06,7.07,0.75,7.1
15.939047813415527,-0.53,7.13,0.51,7.16
15.94940996170044,-1.36,7.15,0.01,7.27
15.959419012069702,-2.29,7.0,-0.67,7.39
15.971222877502441,-2.86,6.84,-1.33,7.53
15.984954833984375,-2.98,6.69,-1.62,7.5
15.989054918289185,-2.89,6.32,-1.33,7.07
15.999262809753418,-3.03,6.12,-0.78,6.87
16.009438037872314,-3.44,5.98,-0.55,6.92
16.020954132080078,-4.21,5.72,-0.53,7.12
16.034328937530518,-5.24,5.63,-0.55,7.71
16.03912901878357,-6.57,5.47,-0.7,8.57
16.049222946166992,-7.59,4.74,-0.72,8.97
16.05930995941162,-7.95,3.75,-0.56,8.8
16.070730924606323,-7.94,2.84,-0.29,8.43
16.083911895751953,-7.75,1.97,0.0,7.99
16.089099884033203,-7.87,1.19,0.28,7.96
16.099252939224243,-8.22,0.19,0.36,8.23
16.109349966049194,-8.55,-0.88,0.21,8.59
16.120716094970703,-8.53,-1.75,0.17,8.7
16.13429880142212,-8.24,-2.51,0.15,8.61
16.13910484313965,-8.0,-3.02,0.21,8.55
16.14920401573181,-7.99,-3.36,0.31,8.67
16.15931510925293,-8.18,-4.08,0.24,9.14
16.170711040496826,-8.26,-5.11,0.11,9.71
16.184037923812866,-7.99,-6.1,-0.04,10.05
16.18923592567444,-7.49,-6.99,0.13,10.24
16.199239015579224,-6.91,-7.72,0.37,10.36
16.209250926971436,-6.27,-8.22,0.38,10.34
16.220715045928955,-5.72,-8.51,0.36,10.26
16.234529972076416,-5.18,-8.69,0.33,10.12
16.239205837249756,-4.77,-8.76,0.17,9.97
16.24930500984192,-4.63,-8.87,0.01,10.0
16.259324073791504,-4.74,-8.88,-0.22,10.06
16.27080488204956,-4.94,-8.69,-0.39,10.0
16.284165859222412,-5.16,-8.52,-0.52,9.97
16.28942584991455,-5.37,-8.4,-0.65,9.99
16.299255847930908,-5.28,-8.4,-0.76,9.95
16.309446811676025,-4.88,-8.41,-0.96,9.77
16.32170295715332,-4.39,-8.3,-0.95,9.43
16.329450130462646,-4.03,-8.08,-0.74,9.05
16.350911140441895,-3.94,-7.86,-0.56,8.81
16.351447105407715,-4.22,-7.72,-0.39,8.8
16.359435081481934,-4.78,-7.42,-0.29,8.83
16.370884895324707,-5.05,-7.03,-0.28,8.66
16.384119987487793,-5.09,-6.47,-0.39,8.24
16.38938808441162,-5.11,-5.72,-0.71,7.7
16.399425983428955,-4.9,-5.15,-1.13,7.19
16.409451007843018,-4.64,-5.06,-1.48,7.02
16.42157793045044,-4.49,-5.07,-1.63,6.96
16.429489135742188,-4.54,-4.97,-1.49,6.89
16.450642108917236,-4.57,-4.82,-1.07,6.72
16.451170921325684,-4.51,-4.46,-0.52,6.36
16.459502935409546,-4.43,-3.71,0.13,5.77
16.471532821655273,-4.48,-2.87,0.78,5.37
16.479536056518555,-4.9,-2.09,1.14,5.44
16.50044298171997,-5.31,-1.65,1.1,5.66
16.500977039337158,-5.72,-1.32,0.89,5.93
16.50951099395752,-6.08,-0.69,0.66,6.15
16.52156114578247,-6.57,0.18,0.49,6.59
16.529513835906982,-6.94,1.14,0.4,7.04
16.5501971244812,-6.75,1.84,0.17,6.99
16.550732135772705,-6.35,2.29,-0.15,6.75
16.55941390991211,-6.08,2.84,-0.31,6.71
16.57150888442993,-6.08,3.47,-0.52,7.01
16.57957887649536,-6.4,4.14,-0.91,7.67
16.6005220413208,-6.79,4.95,-1.39,8.51
16.601063013076782,-7.15,5.89,-1.81,9.43
16.60948896408081,-6.98,6.51,-2.01,9.75
16.621581077575684,-6.15,6.79,-2.01,9.37
16.629579067230225,-5.02,7.09,-1.87,8.88
16.65052604675293,-3.97,7.28,-1.77,8.47
16.651075839996338,-3.28,7.67,-1.96,8.56
16.659603118896484,-2.94,8.17,-2.19,8.95
16.67157292366028,-2.26,8.42,-2.56,9.08
16.679800033569336,-1.45,8.54,-2.9,9.13
16.70030403137207,-0.79,8.65,-3.13,9.23
16.700845956802368,-0.03,8.57,-3.27,9.17
16.70960807800293,0.59,8.3,-3.41,8.99
16.721696853637695,1.35,8.23,-3.27,8.95
16.729722023010254,2.3,8.07,-2.93,8.88
16.750146865844727,3.19,7.9,-2.91,9.0
16.750691890716553,3.99,7.84,-3.29,9.39
16.759646892547607,4.65,7.85,-3.53,9.78
16.771624088287354,5.11,7.9,-3.5,10.03
16.77987003326416,5.23,7.85,-3.53,10.07
16.8003568649292,5.02,7.87,-3.34,9.91
16.80089807510376,4.61,8.08,-2.93,9.75
16.809678077697754,3.95,8.26,-2.76,9.56
16.82169198989868,3.17,8.35,-2.86,9.37
16.829756021499634,2.45,8.37,-3.02,9.22
16.85018014907837,2.14,8.08,-3.14,8.92
16.85071897506714,2.23,7.44,-3.1,8.36
16.859700918197632,2.37,6.93,-2.86,7.86
16.871674060821533,1.97,6.83,-2.64,7.58
16.87978196144104,1.4,6.68,-2.53,7.27
16.899883031845093,0.68,6.42,-2.86,7.06
16.900425910949707,-0.43,6.43,-3.52,7.34
16.909639835357666,-1.82,6.65,-4.11,8.02
16.921855926513672,-3.05,6.43,-4.6,8.47
16.929748058319092,-3.61,5.6,-4.96,8.3
16.9498291015625,-3.64,4.72,-4.8,7.65
16.950377941131592,-3.49,4.18,-4.25,6.9
16.95970582962036,-3.91,3.85,-3.83,6.69
16.97147297859192,-4.63,3.56,-3.76,6.94
16.979875087738037,-5.52,3.33,-3.99,7.58
16.99962091445923,-6.27,3.11,-4.13,8.12
17.00010585784912,-6.64,2.81,-3.86,8.17
17.00972080230713,-6.92,2.32,-3.06,7.91
17.021862983703613,-7.18,1.72,-2.3,7.73
17.029812812805176,-7.13,1.16,-1.58,7.39
17.049509048461914,-6.88,1.14,-0.69,7.0
17.049989938735962,-6.58,1.21,0.01,6.69
17.05974292755127,-6.42,0.75,0.27,6.46
17.071773052215576,-6.25,0.02,0.27,6.25
17.07979106903076,-6.18,-0.43,0.29,6.2
17.100199937820435,-6.02,-0.56,0.29,6.05
17.100744009017944,-5.94,-0.58,0.32,5.97
17.109790802001953,-6.16,-1.06,0.14,6.25
17.121917009353638,-6.37,-1.86,-0.16,6.63
17.129860877990723,-6.42,-2.35,-0.24,6.84
17.150951862335205,-6.39,-2.84,-0.11,6.99
17.15159511566162,-6.43,-3.6,0.15,7.37
17.15972900390625,-6.46,-4.48,0.41,7.87
17.17148208618164,-6.34,-5.23,0.65,8.24
17.17990779876709,-6.15,-5.8,1.04,8.51
17.199599981307983,-5.8,-6.33,1.41,8.7
17.20008897781372,-5.3,-6.8,1.62,8.77
17.209851026535034,-4.66,-7.3,1.9,8.86
17.221576929092407,-4.13,-7.71,2.24,9.02
17.229783058166504,-3.92,-7.95,2.56,9.22
17.24957799911499,-3.89,-8.18,2.89,9.5
17.25005602836609,-3.9,-8.39,3.07,9.74
17.25982904434204,-3.85,-8.53,3.21,9.89
17.271487951278687,-3.76,-8.71,3.32,10.05
17.27994680404663,-3.65,-8.9,3.28,10.16
17.30005192756653,-3.53,-9.04,3.06,10.17
17.300535917282104,-3.35,-9.19,2.83,10.18
17.309950828552246,-3.23,-9.24,2.65,10.14
17.321604013442993,-3.11,-9.06,2.64,9.93
17.32992696762085,-3.07,-8.6,2.89,9.57
17.349670886993408,-3.23,-8.01,3.13,9.18
17.35019588470459,-3.47,-7.67,3.1,8.97
17.359846115112305,-3.87,-7.46,2.78,8.85
17.3718318939209,-4.4,-7.31,2.44,8.87
17.379935026168823,-4.92,-7.01,2.17,8.83
17.400264024734497,-5.47,-6.46,1.85,8.66
17.400804042816162,-5.88,-5.91,1.54,8.47
17.409865856170654,-6.14,-5.33,1.25,8.22
17.421936988830566,-6.56,-4.52,1.08,8.03
17.430005073547363,-6.9,-3.73,0.72,7.87
17.449991941452026,-6.97,-2.94,0.01,7.56
17.450543880462646,-7.17,-2.22,-0.74,7.54
17.45991086959839,-7.56,-1.45,-1.4,7.82
17.47179102897644,-7.98,-0.63,-1.92,8.23
17.48003911972046,-7.76,0.0,-2.03,8.02
17.499753952026367,-7.15,0.77,-1.54,7.35
17.500298976898193,-6.72,1.54,-0.95,6.95
17.509954929351807,-6.59,2.16,-1.01,7.0
17.521583080291748,-6.32,2.65,-1.73,7.06
17.530004024505615,-5.79,2.77,-2.68,6.95
17.549302101135254,-5.4,2.97,-3.56,7.11
17.551012992858887,-5.21,3.26,-4.02,7.34
17.55996799468994,-4.93,3.38,-4.11,7.25
17.57165288925171,-4.71,3.57,-3.86,7.05
17.580014944076538,-4.51,3.94,-3.74,7.06
17.598784923553467,-4.22,4.25,-4.17,7.29
17.599814891815186,-3.86,4.45,-4.82,7.61
17.609857082366943,-3.07,4.65,-5.15,7.58
17.62189793586731,-2.03,4.75,-5.14,7.28
17.62999200820923,-1.42,5.03,-4.88,7.15
17.64975881576538,-1.1,5.18,-4.44,6.91
17.650243997573853,-0.87,4.84,-4.1,6.4
17.659909963607788,-0.92,4.64,-3.86,6.1
17.67164707183838,-1.02,4.92,-3.94,6.38
17.680112838745117,-0.75,5.14,-4.19,6.67
17.69839906692505,-0.5,5.13,-4.25,6.68
17.70004892349243,-0.27,4.99,-4.08,6.45
17.70992612838745,-0.28,4.9,-3.72,6.15
17.721725940704346,-0.32,4.82,-3.16,5.77
17.730139017105103,-0.07,4.62,-2.56,5.28
17.749114990234375,0.15,4.83,-2.22,5.31
17.749974966049194,0.38,5.51,-2.18,5.93
17.760036945343018,0.81,6.11,-2.51,6.65
17.771692991256714,1.04,6.63,-3.19,7.43
17.780044078826904,1.05,7.13,-4.0,8.24
17.79867696762085,1.37,7.3,-4.64,8.75
17.800048828125,1.35,7.37,-5.2,9.12
17.810079097747803,1.22,7.5,-5.66,9.47
17.821858882904053,1.43,7.58,-5.8,9.65
17.83004403114319,1.58,7.52,-5.89,9.68
17.848538875579834,1.39,7.51,-6.01,9.71
17.849985122680664,1.08,7.42,-5.81,9.48
17.86009407043457,0.61,7.2,-5.36,8.99
17.871752977371216,0.01,6.96,-4.67,8.38
17.88011598587036,-0.49,6.51,-3.86,7.58
17.898571014404297,-0.99,6.09,-3.08,6.89
17.900108814239502,-1.48,6.02,-2.52,6.69
17.91006088256836,-2.19,6.29,-2.25,7.03
17.921823024749756,-3.35,6.59,-2.21,7.71
17.930125951766968,-4.34,6.65,-2.13,8.22
17.94892406463623,-4.79,6.38,-2.02,8.22
17.950081825256348,-4.92,5.79,-1.88,7.82
17.960150957107544,-5.23,5.23,-1.54,7.55
17.971861839294434,-6.02,4.95,-0.8,7.83
17.98013210296631,-6.98,4.43,-0.25,8.27
17.99935793876648,-7.98,3.7,-0.07,8.79
18.000242948532104,-8.34,2.8,0.18,8.79
18.010161876678467,-8.08,1.62,0.51,8.25
18.021780014038086,-7.87,0.5,0.91,7.93
18.03015899658203,-7.65,-0.41,1.58,7.82
18.04876708984375,-7.43,-1.25,2.24,7.86
18.050079822540283,-7.48,-1.91,2.72,8.18
18.060068130493164,-7.49,-2.25,2.9,8.34
18.071655988693237,-7.48,-2.4,2.73,8.31
18.080161094665527,-7.63,-2.94,2.11,8.44
18.098867893218994,-7.44,-3.84,1.23,8.46
18.10005497932434,-6.89,-4.45,0.71,8.23
18.110208988189697,-6.29,-4.62,0.69,7.83
18.121783018112183,-5.67,-5.06,0.86,7.64
18.13017702102661,-4.99,-5.7,0.96,7.63
18.148514986038208,-4.48,-6.26,1.15,7.78
18.150242805480957,-4.15,-6.66,1.41,7.97
18.160183906555176,-3.94,-7.03,1.6,8.21
18.17182683944702,-3.74,-7.42,1.72,8.48
18.180205821990967,-3.59,-7.59,1.73,8.57
18.198440074920654,-3.4,-7.55,1.57,8.42
18.200221061706543,-3.29,-7.49,1.46,8.3
18.21023201942444,-3.47,-7.51,1.37,8.38
18.221882820129395,-3.74,-7.4,1.3,8.39
18.230314016342163,-3.85,-7.29,1.26,8.33
18.248872995376587,-3.71,-7.16,1.3,8.16
18.250218868255615,-3.44,-7.04,1.2,7.92
18.260271072387695,-3.2,-7.06,0.94,7.8
18.272207975387573,-3.01,-7.15,0.6,7.78
18.280367851257324,-2.87,-7.21,0.28,7.76
18.299049854278564,-2.65,-7.2,0.09,7.67
18.30015993118286,-2.56,-7.2,0.16,7.64
18.31027603149414,-2.55,-7.05,0.4,7.5
18.32193899154663,-2.69,-6.82,0.71,7.36
18.330267906188965,-3.2,-6.45,0.95,7.26
18.348549842834473,-3.59,-6.14,1.09,7.19
18.35013699531555,-3.64,-5.98,1.28,7.11
18.36030602455139,-3.92,-5.58,1.33,6.94
18.371726989746094,-4.32,-5.26,1.27,6.92
18.380481004714966,-4.56,-5.06,1.21,6.91
18.398573875427246,-4.36,-4.76,1.17,6.56
18.400207042694092,-3.89,-4.19,1.27,5.85
18.41032314300537,-3.71,-3.66,1.32,5.37
18.42179298400879,-4.29,-3.24,0.89,5.44
18.43037986755371,-5.29,-2.72,0.06,5.94
18.448445796966553,-6.26,-2.41,-0.8,6.75
18.45027780532837,-6.53,-2.44,-1.26,7.08
18.46038579940796,-6.05,-2.45,-1.12,6.62
18.47166681289673,-4.99,-2.09,-0.24,5.41
18.480512142181396,-4.29,-1.49,0.65,4.58
18.498919010162354,-4.21,-1.11,0.79,4.42
18.50036382675171,-4.76,-0.91,0.36,4.85
18.51034688949585,-5.55,-0.59,-0.33,5.59
18.521780967712402,-6.65,0.21,-1.03,6.73
18.53026795387268,-7.8,1.49,-1.82,8.14
18.548157930374146,-7.68,2.35,-3.08,8.6
18.55036997795105,-6.48,2.61,-3.91,8.0
18.56040382385254,-4.96,2.93,-3.92,6.96
18.57168483734131,-3.53,3.26,-3.48,5.93
18.580436944961548,-2.75,3.23,-2.99,5.18
18.598361015319824,-2.73,2.94,-2.57,4.76
18.60047698020935,-3.05,2.81,-2.11,4.65
18.61042308807373,-3.83,2.99,-1.4,5.05
18.621697902679443,-4.84,3.32,-0.89,5.93
18.630375862121582,-5.22,3.38,-0.49,6.23
18.64807891845703,-5.21,3.33,-0.03,6.18
18.650344848632812,-4.73,3.22,0.43,5.73
18.660396099090576,-4.08,2.97,0.78,5.1
18.671849966049194,-3.56,2.74,0.9,4.58
18.680454969406128,-3.08,2.62,0.82,4.12
18.698709964752197,-2.42,2.64,0.67,3.64
18.700366973876953,-1.71,2.87,0.53,3.38
18.710474967956543,-1.18,3.18,0.45,3.42
18.721641063690186,-1.04,3.55,0.38,3.71
18.730504035949707,-1.03,4.19,0.31,4.32
18.748356819152832,-0.94,4.99,0.4,5.09
18.750420093536377,-0.93,5.9,0.49,5.99
18.760499954223633,-1.3,7.12,0.43,7.25
18.77159595489502,-1.67,8.43,0.12,8.59
18.780510902404785,-1.81,9.57,-0.33,9.74
18.798829078674316,-1.7,10.43,-0.63,10.58
18.801321029663086,-1.44,11.34,-0.73,11.45
18.810481071472168,-1.16,12.12,-0.77,12.19
18.821517944335938,-0.91,12.56,-1.2,12.64
18.830471992492676,-0.89,12.73,-1.79,12.88
18.848875045776367,-0.94,12.79,-2.47,13.06
18.85045289993286,-1.05,12.66,-3.18,13.09
18.86056399345398,-1.03,12.23,-3.93,12.88
18.87156581878662,-0.76,11.23,-4.33,12.05
18.880691051483154,-0.61,10.47,-4.25,11.31
18.89869999885559,-0.44,9.96,-3.8,10.66
18.900574922561646,-0.62,9.35,-3.37,9.95
18.910552978515625,-1.01,8.84,-3.15,9.43
18.92160987854004,-1.45,8.43,-2.97,9.05
18.93077301979065,-2.3,8.02,-2.87,8.82
18.948712825775146,-3.12,7.53,-2.75,8.6
18.950482845306396,-4.05,6.97,-2.62,8.47
18.960556983947754,-5.37,6.53,-2.42,8.79
18.971606969833374,-6.92,6.26,-2.35,9.62
18.98056411743164,-8.42,5.94,-2.26,10.54
18.998981952667236,-9.34,5.3,-1.95,10.91
19.000471115112305,-9.75,4.54,-1.65,10.88
19.01052188873291,-9.69,3.27,-0.93,10.26
19.02156901359558,-9.63,2.02,-0.01,9.83
19.030542850494385,-9.97,1.21,0.76,10.07
19.047950983047485,-10.24,0.26,1.4,10.33
19.05057692527771,-10.43,-0.89,1.59,10.58
19.060473918914795,-10.19,-2.05,1.4,10.48
19.07165288925171,-9.86,-2.99,0.95,10.34
19.08065700531006,-9.46,-3.63,0.43,10.14
19.098287105560303,-8.53,-4.15,0.02,9.48
19.10047698020935,-7.62,-4.61,-0.13,8.9
19.110615015029907,-6.84,-5.13,-0.14,8.55
19.121667861938477,-6.39,-5.85,-0.22,8.66
19.130473136901855,-6.01,-6.59,-0.22,8.92
19.148952960968018,-5.5,-7.11,-0.06,8.98
19.15056800842285,-5.02,-7.49,0.25,9.02
19.16059684753418,-4.54,-7.83,0.62,9.07
19.17169713973999,-4.05,-8.2,0.83,9.18
19.180718898773193,-3.38,-8.57,0.86,9.25
19.198688983917236,-2.84,-8.81,0.86,9.29
19.200744152069092,-2.44,-8.95,0.81,9.31
19.210662841796875,-2.27,-8.96,0.67,9.26
19.22179102897644,-2.43,-8.83,0.39,9.16
19.23079490661621,-2.59,-8.78,0.23,9.15
19.249030113220215,-2.67,-8.8,0.11,9.19
19.25064492225647,-2.71,-8.84,-0.05,9.24
19.260658025741577,-2.76,-8.84,-0.23,9.26
19.271738052368164,-2.67,-8.93,-0.36,9.32
19.280755043029785,-2.56,-9.02,-0.44,9.38
19.298264980316162,-2.43,-8.9,-0.46,9.23
19.300606966018677,-2.48,-8.64,-0.36,8.99
19.310708045959473,-2.81,-8.34,-0.31,8.8
19.321775913238525,-3.15,-8.16,-0.22,8.74
19.33064889907837,-3.22,-8.18,0.01,8.79
19.34878897666931,-3.29,-8.04,0.34,8.69
19.35075092315674,-3.93,-7.38,0.52,8.37
19.36070680618286,-4.88,-6.59,0.44,8.21
19.37175703048706,-5.5,-6.22,0.34,8.3
19.380638122558594,-5.55,-6.16,0.43,8.3
19.398958921432495,-5.05,-5.99,0.5,7.85
19.40074586868286,-4.4,-5.74,0.76,7.27
19.41073203086853,-3.7,-5.49,1.23,6.73
19.422116994857788,-3.44,-5.29,1.57,6.5
19.430851936340332,-4.0,-5.06,1.47,6.61
19.449141025543213,-5.28,-4.41,0.99,6.95
19.45061206817627,-6.86,-3.33,0.39,7.63
19.46075201034546,-8.08,-2.38,-0.57,8.44
19.471877098083496,-8.7,-1.62,-1.71,9.01
19.480915069580078,-8.5,-1.27,-2.58,8.97
19.499127864837646,-7.69,-1.08,-2.97,8.31
19.500832080841064,-6.5,-0.71,-2.61,7.04
19.51081609725952,-5.45,-0.47,-2.07,5.84
19.522226810455322,-4.58,-0.63,-1.9,4.99
19.530841827392578,-4.19,-0.7,-1.92,4.66
19.54950189590454,-4.93,-0.05,-1.9,5.28
19.550785064697266,-6.27,1.38,-2.02,6.73
19.560815811157227,-7.18,3.06,-2.37,8.15
19.57227396965027,-7.82,4.18,-2.82,9.3
19.580917835235596,-7.65,4.71,-3.16,9.52
19.599050998687744,-6.33,5.11,-3.19,8.73
19.60087299346924,-4.51,5.44,-2.65,7.54
19.610718965530396,-2.82,5.48,-1.88,6.44
19.62209701538086,-1.74,5.21,-1.46,5.68
19.63086700439453,-1.9,5.31,-1.53,5.84
19.649293899536133,-3.65,6.12,-2.07,7.42
19.65079402923584,-5.34,7.3,-3.12,9.56
19.660809993743896,-6.16,8.47,-3.47,11.03
19.672106981277466,-5.72,9.06,-3.15,11.16
19.68089485168457,-4.24,9.08,-2.49,10.32
19.699613094329834,-2.56,8.93,-1.41,9.39
19.70082187652588,-1.28,8.95,-0.47,9.05
19.71091079711914,-0.57,9.2,0.17,9.21
19.72212314605713,-0.53,9.55,0.46,9.57
19.73093605041504,-1.65,10.16,0.22,10.29
19.748544931411743,-2.44,11.58,1.04,11.87
19.75083303451538,-1.35,11.81,1.17,11.94
19.76087188720703,-1.11,10.43,0.35,10.49
19.772239923477173,-0.81,8.83,-0.25,8.87
19.781015872955322,-0.38,7.98,-0.14,7.99
19.799150943756104,-0.48,8.1,0.66,8.14
19.80078411102295,-0.63,8.67,1.24,8.78
19.810889959335327,-1.04,8.96,1.21,9.1
19.822082042694092,-2.29,9.31,0.93,9.63
19.830997943878174,-3.72,9.85,0.57,10.54
19.849163055419922,-4.82,9.9,0.44,11.01
19.850987911224365,-5.64,9.41,0.41,10.97
19.860886096954346,-6.03,8.58,0.38,10.49
19.872192859649658,-5.76,7.76,0.46,9.67
19.881072998046875,-5.56,7.06,0.44,8.99
19.89808702468872,-5.96,6.77,0.09,9.02
19.900959014892578,-7.0,6.64,-0.6,9.66
19.910961151123047,-7.99,5.97,-1.4,10.07
19.922189950942993,-8.58,4.89,-1.86,10.04
19.93101406097412,-8.79,3.92,-2.16,9.86
19.94792604446411,-8.93,3.13,-2.06,9.68
19.95085906982422,-9.41,2.33,-1.72,9.84
19.96091890335083,-10.07,1.6,-1.49,10.3
19.97220802307129,-10.36,0.61,-1.3,10.45
19.98088312149048,-10.05,-0.77,-0.89,10.11
19.99815607070923,-9.1,-1.96,-0.33,9.31
20.000872135162354,-7.99,-2.69,0.11,8.43
20.01094913482666,-7.11,-3.11,0.42,7.77
20.022273063659668,-6.93,-3.31,0.37,7.68
20.030975818634033,-7.2,-3.66,0.09,8.07
20.048372983932495,-7.5,-4.21,-0.32,8.6
20.05103898048401,-7.53,-4.84,-0.62,8.97
20.06100082397461,-7.23,-5.44,-0.7,9.07
20.072189807891846,-6.75,-5.97,-0.58,9.02
20.08096408843994,-6.13,-6.51,-0.37,8.94
20.098411083221436,-5.59,-6.97,-0.07,8.93
20.100871086120605,-4.96,-7.39,0.2,8.9
20.1110200881958,-4.25,-7.8,0.51,8.89
20.122267961502075,-3.71,-8.1,0.9,8.95
20.131041049957275,-3.48,-8.12,1.24,8.92
20.148638010025024,-3.4,-7.98,1.58,8.81
20.1510910987854,-3.45,-7.83,1.62,8.7
20.161041975021362,-3.77,-7.75,1.42,8.73
20.172329902648926,-4.02,-7.74,1.01,8.77
20.181167125701904,-4.03,-7.87,0.41,8.85
20.19852590560913,-3.89,-8.03,0.03,8.92
20.201033115386963,-3.7,-7.95,-0.24,8.77
20.211074829101562,-3.48,-7.94,-0.43,8.67
20.222327947616577,-3.19,-7.99,-0.55,8.62
20.231091022491455,-2.8,-8.06,-0.62,8.55
20.24879503250122,-2.55,-8.18,-0.66,8.59
20.25108289718628,-2.41,-8.28,-0.71,8.65
20.261037826538086,-2.36,-8.28,-0.7,8.63
20.272514820098877,-2.34,-8.06,-0.66,8.41
20.281185150146484,-2.27,-7.78,-0.58,8.12
20.29832696914673,-2.16,-7.62,-0.55,7.93
20.30102801322937,-2.19,-7.6,-0.64,7.93
20.31113600730896,-2.27,-7.71,-0.79,8.07
20.322670936584473,-2.26,-7.76,-0.95,8.13
20.331252098083496,-2.25,-7.63,-1.05,8.02
20.34869694709778,-2.18,-7.39,-0.95,7.76
20.35106897354126,-2.16,-7.18,-0.79,7.53
20.3610680103302,-2.26,-6.92,-0.71,7.31
20.37239694595337,-2.54,-6.43,-0.62,6.94
20.381342887878418,-3.03,-5.75,-0.56,6.52
20.398533821105957,-3.71,-4.99,-0.61,6.24
20.401188850402832,-4.67,-4.45,-0.77,6.49
20.411180019378662,-5.29,-4.19,-0.88,6.8
20.42248296737671,-5.53,-3.85,-0.84,6.79
20.431209087371826,-5.85,-3.32,-0.56,6.74
20.448758125305176,-6.07,-2.79,0.01,6.68
20.451100826263428,-6.13,-2.34,0.41,6.57
20.461200952529907,-6.46,-1.9,0.44,6.74
20.472352027893066,-6.54,-1.51,0.39,6.72
20.481343030929565,-6.41,-0.96,0.46,6.49
20.498661994934082,-6.43,-0.1,0.55,6.45
20.501266956329346,-6.38,0.56,0.38,6.41
20.511221885681152,-6.95,1.22,0.14,7.05
20.52250385284424,-7.72,1.96,-0.12,7.96
20.53127694129944,-7.63,2.43,-0.15,8.0
20.54872703552246,-6.82,2.73,-0.02,7.34
20.551185131072998,-5.94,3.26,0.11,6.77
20.561252117156982,-5.05,3.45,0.13,6.11
20.572399139404297,-4.94,3.77,-0.43,6.22
20.581297874450684,-5.55,4.61,-1.21,7.31
20.598517894744873,-6.12,5.26,-1.79,8.26
20.60118794441223,-6.64,5.82,-2.64,9.21
20.6112220287323,-7.23,6.35,-3.57,10.26
20.62239980697632,-7.17,6.8,-4.2,10.73
20.63137197494507,-6.58,6.92,-4.26,10.45
20.64834690093994,-5.71,6.83,-4.02,9.76
20.65126609802246,-4.3,6.8,-3.63,8.82
20.66130781173706,-3.04,6.66,-2.8,7.83
20.67252802848816,-2.2,6.26,-2.11,6.96
20.681427001953125,-1.81,6.12,-1.55,6.56
20.698575973510742,-1.66,6.45,-0.92,6.72
20.70121192932129,-1.46,6.96,-0.26,7.11
20.7112820148468,-1.43,7.39,0.2,7.52
20.722527027130127,-1.55,7.78,0.4,7.94
20.73138999938965,-1.67,8.16,0.76,8.36
20.748239040374756,-1.84,8.64,1.41,8.94
20.751240015029907,-2.1,9.2,2.03,9.65
20.76131296157837,-2.37,9.68,2.51,10.27
20.772539138793945,-2.19,9.87,2.74,10.47
20.781413078308105,-1.95,9.83,2.69,10.37
20.798836946487427,-2.13,9.71,2.32,10.2
20.80118203163147,-2.38,9.55,1.86,10.01
20.81132197380066,-2.75,9.41,1.4,9.9
20.822561979293823,-3.23,9.45,1.05,10.04
20.83138084411621,-3.67,9.3,0.67,10.02
20.84848403930664,-4.08,8.71,0.34,9.62
20.8512020111084,-4.37,7.99,0.1,9.1
20.86130380630493,-4.37,7.1,0.05,8.33
20.872579097747803,-4.1,6.13,0.21,7.37
20.881420135498047,-4.22,5.39,0.45,6.86
20.898401975631714,-4.87,4.95,0.61,6.97
20.901269912719727,-5.06,4.23,0.96,6.66
20.91143798828125,-5.16,3.22,1.24,6.2
20.922616958618164,-5.38,2.44,1.33,6.05
20.93135690689087,-5.46,1.89,1.2,5.9
20.94743299484253,-5.72,1.48,0.99,5.99
20.95176601409912,-6.23,1.24,0.78,6.39
20.961535930633545,-6.55,0.8,0.65,6.63
20.972603797912598,-6.88,0.3,0.55,6.9
20.98152780532837,-7.04,-0.12,0.19,7.04
20.997400999069214,-7.27,-0.48,-0.07,7.28
21.001786947250366,-6.95,-0.94,0.44,7.02
21.01141095161438,-6.66,-1.22,0.81,6.81
21.022602081298828,-6.47,-1.33,1.17,6.7
21.031404972076416,-6.24,-1.32,1.55,6.56
21.04782795906067,-6.38,-1.59,1.53,6.75
21.051713943481445,-7.1,-2.08,1.02,7.46
21.061461925506592,-7.54,-2.72,0.87,8.06
21.072561979293823,-7.35,-3.47,0.77,8.16
21.08146381378174,-6.95,-4.28,0.5,8.17
21.09769582748413,-6.26,-4.93,0.43,7.97
21.101658821105957,-5.37,-5.12,0.39,7.42
21.111398935317993,-4.49,-5.26,0.28,6.92
21.12274193763733,-4.08,-5.56,0.11,6.89
21.131489992141724,-3.95,-5.98,-0.15,7.16
21.147461891174316,-4.16,-6.23,-0.34,7.49
21.15190315246582,-4.47,-6.33,-0.45,7.76
21.161463975906372,-4.4,-6.62,-0.54,7.96
21.172786951065063,-4.14,-7.03,-0.48,8.17
21.18169593811035,-3.77,-7.32,-0.38,8.24
21.198058128356934,-3.28,-7.58,-0.23,8.26
21.20187497138977,-2.85,-7.79,0.02,8.29
21.211493015289307,-2.62,-7.9,0.26,8.32
21.222734928131104,-2.6,-7.75,0.31,8.18
21.23157787322998,-2.76,-7.51,0.19,8.0
21.2485408782959,-3.11,-7.3,-0.11,7.93
21.251796007156372,-3.46,-6.95,-0.55,7.78
21.26154088973999,-3.63,-6.62,-0.98,7.61
21.272714138031006,-3.75,-6.41,-1.34,7.54
21.281574010849,-3.66,-6.35,-1.57,7.49
21.298751831054688,-3.15,-6.18,-1.58,7.11
21.3017578125,-2.21,-5.94,-1.48,6.5
21.311564922332764,-1.26,-5.79,-1.15,6.03
21.322805881500244,-0.96,-5.57,-0.8,5.7
21.331583976745605,-1.31,-5.16,-0.67,5.36
21.34817600250244,-2.09,-4.7,-0.64,5.18
21.351715087890625,-2.87,-4.12,-0.66,5.06
21.361669063568115,-3.27,-3.51,-0.52,4.82
21.372716903686523,-3.59,-3.09,-0.49,4.76
21.38164496421814,-3.75,-2.87,-0.57,4.75
21.397836923599243,-3.53,-2.9,-0.73,4.62
21.401679039001465,-3.0,-2.9,-0.58,4.21
21.411573886871338,-2.46,-2.47,-0.06,3.48
21.422770023345947,-2.08,-1.98,0.46,2.9
21.431906938552856,-2.13,-1.78,0.65,2.85
21.44832181930542,-2.57,-1.67,0.55,3.11
21.451687812805176,-3.02,-1.43,0.3,3.35
21.461545944213867,-3.5,-1.01,0.24,3.65
21.47276997566223,-4.37,-0.34,0.0,4.38
21.48164701461792,-4.93,0.16,-0.4,4.94
21.49811601638794,-5.16,0.39,-0.8,5.23
21.501611948013306,-4.97,0.64,-0.93,5.09
21.511680126190186,-4.05,0.84,-0.71,4.19
21.523136138916016,-2.92,0.97,-0.3,3.09
21.53175401687622,-2.17,1.0,-0.06,2.39
21.547912120819092,-1.86,0.68,-0.12,1.98
21.551671028137207,-1.91,0.3,-0.32,1.95
21.561596870422363,-2.15,0.16,-0.34,2.18
21.572803020477295,-2.41,0.36,-0.12,2.43
21.581730842590332,-2.73,0.97,0.41,2.92
21.598021984100342,-2.91,1.4,0.76,3.31
21.601624011993408,-3.26,1.64,0.98,3.77
21.611610889434814,-3.59,1.8,1.08,4.15
21.623220920562744,-3.22,1.73,1.19,3.84
21.631742000579834,-2.39,1.42,1.35,3.09
21.648394107818604,-1.85,1.13,1.5,2.63
21.651607036590576,-1.79,1.18,1.68,2.72
21.661597967147827,-1.84,1.35,1.94,2.99
21.673147916793823,-1.84,1.49,2.2,3.23
21.681803941726685,-1.69,1.6,2.16,3.17
21.69785499572754,-1.73,1.79,2.23,3.34
21.70164680480957,-1.78,2.11,2.51,3.73
21.71166706085205,-1.61,2.56,2.82,4.13
21.723302841186523,-1.6,3.11,3.13,4.69
21.73183584213257,-1.63,3.68,3.31,5.21
21.748330116271973,-1.67,4.45,3.29,5.78
21.751598834991455,-1.73,5.53,3.43,6.73
21.76175594329834,-1.76,6.96,3.69,8.07
21.77329111099243,-1.8,8.15,3.62,9.09
21.781888961791992,-1.85,9.03,3.29,9.78
21.79792308807373,-1.36,9.77,2.66,10.21
21.80162501335144,-1.01,10.48,1.85,10.68
21.811668872833252,-1.24,11.52,1.03,11.63
21.823014974594116,-1.41,12.5,-0.1,12.57
21.8318350315094,-1.54,12.89,-1.31,13.04
21.847842931747437,-1.5,12.74,-2.3,13.03
21.851748943328857,-1.05,12.34,-2.93,12.72
21.861863136291504,-0.62,11.83,-3.12,12.25
21.873198986053467,-0.27,11.36,-3.03,11.76
21.881829023361206,-0.45,10.64,-2.9,11.03
21.89800000190735,-0.84,9.69,-2.69,10.09
21.90170907974243,-1.19,8.82,-2.14,9.15
21.911903858184814,-1.79,8.22,-1.16,8.49
21.92301893234253,-2.22,7.52,-0.19,7.84
21.93197798728943,-2.6,6.56,0.54,7.07
21.947290897369385,-3.08,5.64,1.08,6.51
21.95167303085327,-3.76,4.77,1.61,6.28
21.9619140625,-4.79,4.45,2.3,6.93
21.97292399406433,-5.89,4.47,2.95,7.96
21.981863021850586,-6.86,4.21,3.42,8.74
21.99732995033264,-7.57,3.78,3.22,9.05
22.00173282623291,-7.88,3.0,2.39,8.76
22.011784076690674,-8.06,2.2,1.69,8.52
22.023117065429688,-7.67,1.36,1.45,7.92
22.03196692466736,-7.22,0.45,1.4,7.36
22.04706382751465,-7.0,-0.36,1.44,7.15
22.051680088043213,-6.64,-0.97,1.3,6.83
22.061999797821045,-6.51,-1.62,1.04,6.78
22.073007106781006,-6.65,-2.17,0.94,7.05
22.081822872161865,-6.54,-2.66,0.62,7.08
22.09673500061035,-6.27,-3.17,0.22,7.02
22.10177183151245,-5.89,-3.82,-0.28,7.02
22.111953020095825,-5.37,-4.38,-0.61,6.95
22.123202800750732,-4.8,-4.83,-0.8,6.85
22.131820917129517,-4.36,-5.37,-0.8,6.96
22.146687984466553,-3.98,-5.84,-0.64,7.09
22.15177893638611,-3.39,-6.08,-0.3,6.96
22.161998987197876,-2.94,-6.19,0.22,6.85
22.173184871673584,-2.74,-6.43,0.8,7.03
22.181965827941895,-2.57,-6.69,1.23,7.27
22.197206020355225,-2.49,-6.89,1.43,7.46
22.20190691947937,-2.73,-6.97,1.44,7.62
22.212021827697754,-3.01,-7.05,1.23,7.76
22.22323203086853,-3.14,-7.22,0.9,7.92
22.232061862945557,-3.21,-7.39,0.47,8.07
22.247435092926025,-3.1,-7.54,0.14,8.15
22.251801013946533,-2.83,-7.68,-0.11,8.18
22.262075901031494,-2.48,-7.83,-0.34,8.22
22.273469924926758,-2.24,-7.9,-0.48,8.22
22.28205394744873,-2.08,-7.9,-0.62,8.19
22.298053979873657,-2.01,-7.92,-0.71,8.2
22.30195713043213,-2.22,-7.83,-0.71,8.16
22.312045097351074,-2.48,-7.58,-0.76,8.01
22.32339096069336,-2.67,-7.38,-0.79,7.88
22.332018852233887,-2.91,-7.26,-0.71,7.85
22.34760093688965,-3.1,-7.0,-0.79,7.69
22.351868152618408,-3.07,-6.79,-0.82,7.49
22.362013816833496,-2.77,-6.68,-0.85,7.28
22.373095989227295,-2.5,-6.47,-0.98,7.0
22.38227081298828,-2.52,-5.98,-1.04,6.57
22.397279977798462,-2.6,-5.53,-0.95,6.18
22.401999950408936,-2.67,-5.18,-0.8,5.88
22.412084102630615,-2.84,-4.75,-0.58,5.56
22.423200130462646,-3.04,-4.42,-0.51,5.38
22.431978940963745,-3.31,-4.22,-0.51,5.38
22.446999073028564,-3.78,-3.96,-0.55,5.5
22.451781034469604,-4.27,-3.81,-0.55,5.74
22.46204400062561,-4.63,-3.79,-0.48,6.0
22.473068952560425,-4.72,-3.54,-0.17,5.9
22.481990814208984,-4.64,-3.25,0.28,5.67
22.497520923614502,-4.99,-2.93,0.5,5.8
22.50195002555847,-5.56,-2.34,0.65,6.06
22.512020111083984,-5.94,-1.61,0.82,6.2
22.523312091827393,-6.68,-0.69,0.67,6.74
22.532089948654175,-7.71,0.35,0.41,7.72
22.547403812408447,-8.17,0.98,0.3,8.23
22.551971912384033,-8.33,1.77,0.59,8.53
22.564631938934326,-7.8,2.67,0.92,8.29
22.57330298423767,-6.63,2.98,1.12,7.35
22.582234859466553,-5.52,2.82,1.27,6.32
22.597447872161865,-4.93,3.03,1.29,5.92
22.602002143859863,-4.63,3.62,1.21,6.0
22.61215591430664,-5.24,4.49,0.68,6.93
22.623417854309082,-6.17,5.68,-0.29,8.39
22.632104873657227,-6.41,6.81,-1.34,9.44
22.64761209487915,-6.34,7.41,-2.28,10.01
22.652084827423096,-5.72,7.69,-2.6,9.93
22.66226100921631,-4.18,7.79,-2.52,9.19
22.67408299446106,-2.74,7.74,-1.85,8.41
22.682262897491455,-1.62,7.64,-1.19,7.9
22.697423934936523,-0.86,7.45,-0.75,7.53
22.702031135559082,-0.43,7.52,-0.54,7.55
22.712065935134888,-0.42,7.96,-0.59,7.99
22.723299980163574,-0.92,8.73,-0.76,8.81
22.732171058654785,-1.57,9.93,-1.16,10.12
22.74714994430542,-1.76,10.67,-2.05,11.0
22.751935958862305,-1.76,10.59,-2.53,11.02
22.762217044830322,-1.51,10.61,-2.37,10.97
22.77336311340332,-0.79,10.56,-1.93,10.76
22.782279014587402,-0.07,9.71,-1.31,9.79
22.79714798927307,0.53,8.8,-0.73,8.84
22.802064895629883,0.87,8.18,-0.19,8.22
22.812182903289795,0.92,7.64,0.35,7.7
22.823337078094482,0.57,7.2,0.7,7.25
22.832170963287354,-0.12,7.02,0.9,7.07
22.846569061279297,-0.73,7.04,1.03,7.15
22.851984977722168,-1.28,7.11,1.12,7.31
22.862087965011597,-1.75,7.09,1.17,7.39
22.87330389022827,-2.23,7.1,1.18,7.53
22.88222312927246,-2.64,6.92,1.05,7.48
22.89692997932434,-2.93,6.52,0.81,7.19
22.902087926864624,-3.27,6.2,0.56,7.03
22.91221594810486,-3.94,6.13,0.38,7.29
22.923468112945557,-5.02,6.1,0.17,7.9
22.932167053222656,-5.8,5.43,0.0,7.94
22.9462571144104,-6.45,4.55,-0.11,7.89
22.952160835266113,-6.68,3.72,0.0,7.64
22.963287830352783,-6.63,2.87,0.38,7.23
22.973806858062744,-6.94,2.27,0.77,7.34
22.982315063476562,-7.46,1.77,1.06,7.74
22.99752187728882,-7.85,1.04,1.1,7.99
23.002275943756104,-8.49,0.4,1.02,8.56
23.012274026870728,-8.78,-0.23,0.83,8.82
23.023842811584473,-8.56,-1.05,0.5,8.63
23.032346963882446,-8.25,-2.06,0.01,8.5
23.04683208465576,-7.98,-2.86,-0.34,8.48
23.052376985549927,-7.63,-3.25,-0.31,8.29
23.062389850616455,-7.31,-3.67,-0.29,8.18
23.073593139648438,-7.18,-4.22,-0.27,8.33
23.08235192298889,-7.09,-4.64,-0.15,8.47
23.096861839294434,-6.86,-5.26,-0.1,8.64
23.102226972579956,-6.56,-6.06,0.11,8.93
23.112308979034424,-6.02,-6.82,0.37,9.1
23.123480796813965,-5.16,-7.2,0.36,8.86
23.132320880889893,-4.02,-7.49,0.19,8.5
23.146235942840576,-3.15,-7.75,0.07,8.36
23.152246952056885,-2.61,-7.73,-0.11,8.15
23.16230010986328,-2.18,-7.67,-0.28,7.97
23.17348599433899,-1.93,-7.82,-0.41,8.06
23.18240213394165,-1.87,-8.02,-0.47,8.24
23.197088956832886,-1.77,-8.16,-0.39,8.35
23.20237398147583,-1.53,-8.18,-0.33,8.32
23.212435960769653,-1.43,-8.17,-0.31,8.29
23.223709106445312,-1.53,-8.28,-0.21,8.42
23.232481956481934,-1.54,-8.46,0.01,8.59
23.246304035186768,-1.45,-8.65,0.14,8.77
23.252267837524414,-1.29,-8.96,0.21,9.05
23.26235795021057,-1.17,-9.06,0.4,9.14
23.273613929748535,-1.07,-8.88,0.47,8.95
23.282413959503174,-1.05,-8.69,0.44,8.76
23.29669189453125,-1.29,-8.48,0.42,8.58
23.302391052246094,-1.6,-8.19,0.27,8.34
23.312346935272217,-1.96,-7.98,0.14,8.21
23.32368302345276,-2.3,-7.76,-0.03,8.09
23.332432985305786,-2.5,-7.51,-0.15,7.91
23.346325874328613,-2.73,-7.15,-0.19,7.65
23.352327823638916,-2.9,-6.79,-0.26,7.38
23.362468004226685,-2.95,-6.46,-0.4,7.11
23.373580932617188,-3.08,-6.13,-0.45,6.87
23.382447004318237,-3.41,-5.91,-0.38,6.83
23.39622402191162,-4.0,-5.68,-0.23,6.95
23.40234899520874,-4.64,-5.37,-0.12,7.09
23.41239881515503,-5.11,-5.01,0.14,7.15
23.42388892173767,-5.33,-4.81,0.4,7.19
23.43247890472412,-5.56,-4.73,0.63,7.32
23.446624994277954,-6.1,-4.51,0.81,7.62
23.452385902404785,-6.48,-4.18,1.17,7.79
23.46243715286255,-6.62,-3.73,1.5,7.74
23.473957061767578,-6.57,-3.38,1.54,7.54
23.48260998725891,-6.52,-3.07,1.34,7.33
23.49695587158203,-6.47,-2.42,1.03,6.98
23.502476930618286,-6.6,-1.57,0.32,6.79
23.51243305206299,-7.54,-0.59,-0.1,7.56
23.52376699447632,-8.46,0.77,0.14,8.49
23.532562971115112,-9.2,2.21,-0.34,9.46
23.546464920043945,-9.75,2.7,-0.74,10.14
23.55239486694336,-9.08,2.82,-0.42,9.51
23.56260395050049,-7.12,3.21,0.28,7.81
23.573681831359863,-5.56,3.46,0.73,6.58
23.58254384994507,-5.04,3.75,0.59,6.3
23.595582008361816,-5.24,4.67,0.42,7.03
23.602426052093506,-5.86,5.67,-0.12,8.15
23.612523078918457,-7.27,6.84,-1.21,10.05
23.623759031295776,-7.81,8.14,-2.21,11.49
23.632503986358643,-7.4,9.12,-2.86,12.08
23.646677017211914,-6.63,9.8,-3.18,12.25
23.652423858642578,-5.45,10.56,-3.39,12.35
23.662681102752686,-4.03,11.24,-3.48,12.43
23.67375612258911,-3.22,11.56,-3.61,12.53
23.682448863983154,-2.86,11.43,-3.53,12.29
23.695499897003174,-2.64,11.39,-3.15,12.1
23.70252513885498,-2.35,11.58,-2.55,12.08
23.713841915130615,-2.14,11.63,-2.07,12.0
23.723791122436523,-2.22,11.44,-1.98,11.82
23.746341943740845,-2.32,11.34,-1.77,11.7
23.746829986572266,-2.17,11.19,-1.36,11.47
23.752543926239014,-2.18,10.78,-1.24,11.06
23.762746810913086,-2.34,10.23,-1.21,10.56
23.773816108703613,-2.29,9.65,-1.2,9.99
23.795776844024658,-2.18,9.0,-1.17,9.33
23.796252965927124,-2.02,8.19,-1.27,8.53
23.802650928497314,-1.72,7.33,-1.33,7.64
23.812492847442627,-1.5,6.5,-1.33,6.8
23.823916912078857,-1.49,5.84,-1.05,6.11
23.846194982528687,-1.59,5.47,-0.56,5.72
23.84667682647705,-2.26,5.37,-0.07,5.82
23.852550983428955,-3.13,5.07,0.29,5.96
23.86265993118286,-4.26,4.5,0.4,6.2
23.873876094818115,-5.06,3.68,0.46,6.27
23.89638614654541,-5.28,2.53,0.62,5.88
23.896857976913452,-5.3,1.31,0.97,5.54
23.902749061584473,-5.16,0.59,1.46,5.39
23.912637948989868,-5.18,0.48,1.85,5.52
23.924124002456665,-5.46,0.56,2.15,5.89
23.94693398475647,-6.42,0.85,2.2,6.83
23.94747304916382,-7.89,1.47,1.78,8.22
23.95266580581665,-8.75,1.76,1.5,9.05
23.962729930877686,-9.38,1.83,1.36,9.65
23.974207878112793,-9.73,1.86,1.18,9.97
23.9965181350708,-9.76,1.54,0.97,9.92
23.997003078460693,-9.95,1.2,0.73,10.04
24.002556800842285,-9.72,0.69,0.52,9.75
24.01252293586731,-9.39,0.13,0.47,9.4
24.02403211593628,-8.62,-0.75,0.3,8.65
24.045863151550293,-7.87,-1.89,0.02,8.09
24.046344995498657,-7.55,-2.62,-0.35,7.99
24.052649974822998,-7.14,-3.31,-0.79,7.9
24.062693119049072,-6.64,-4.23,-1.17,7.95
24.07382297515869,-6.31,-5.2,-1.36,8.28
24.096320152282715,-6.02,-6.15,-1.41,8.72
24.096805095672607,-5.64,-7.1,-1.24,9.15
24.1026029586792,-5.09,-7.88,-0.52,9.39
24.11275601387024,-4.45,-8.37,0.27,9.48
24.123976945877075,-3.91,-8.77,1.0,9.65
24.1458740234375,-3.52,-9.09,1.58,9.87
24.146360874176025,-3.32,-9.39,1.93,10.14
24.152626991271973,-3.31,-9.62,2.16,10.4
24.162757873535156,-3.25,-9.78,2.2,10.53
24.173908948898315,-3.11,-9.85,2.28,10.57
24.195536136627197,-2.86,-9.68,2.07,10.3
24.196012020111084,-2.51,-9.57,1.62,10.02
24.20271110534668,-2.2,-9.49,1.2,9.81
24.212682962417603,-1.86,-9.35,0.53,9.54
24.224013805389404,-1.45,-9.18,-0.07,9.29
24.245795011520386,-1.18,-9.0,-0.47,9.08
24.24626398086548,-1.09,-8.7,-0.84,8.8
24.252749919891357,-1.15,-8.32,-1.13,8.47
24.26275110244751,-1.16,-8.04,-1.35,8.23
24.273940086364746,-1.26,-7.86,-1.33,8.07
24.296422004699707,-1.49,-7.51,-1.1,7.73
24.29689598083496,-1.73,-7.13,-0.83,7.38
24.302726984024048,-2.08,-6.84,-0.5,7.16
24.312721967697144,-2.38,-6.58,-0.31,7.0
24.324119091033936,-2.64,-6.34,-0.29,6.87
24.34563684463501,-2.82,-6.19,-0.42,6.81
24.346117973327637,-2.78,-6.11,-0.57,6.73
24.35268211364746,-2.83,-5.97,-0.59,6.63
24.362823963165283,-2.98,-5.83,-0.61,6.57
24.374032974243164,-3.14,-5.77,-0.45,6.58
24.39500904083252,-3.6,-5.29,0.22,6.4
24.39548683166504,-4.15,-4.18,0.82,5.94
24.402822017669678,-4.45,-3.52,1.17,5.79
24.412797927856445,-4.71,-3.44,1.42,6.0
24.424059867858887,-4.85,-3.49,1.46,6.15
24.445405960083008,-4.87,-3.64,1.32,6.22
24.445889949798584,-5.27,-3.67,1.1,6.51
24.45275092124939,-5.49,-3.86,0.91,6.77
24.46291494369507,-5.62,-3.99,0.71,6.92
24.47411298751831,-6.43,-3.03,0.67,7.13
24.494786977767944,-6.89,-1.71,0.1,7.09
24.495216846466064,-7.28,-1.38,-0.71,7.44
24.505207061767578,-7.6,-1.31,-1.12,7.79
24.512744903564453,-7.41,-0.91,-1.28,7.57
24.524136066436768,-6.96,-0.51,-1.03,7.05
24.5445499420166,-7.03,0.03,-0.76,7.07
24.544979095458984,-7.31,0.46,-0.55,7.34
24.55281114578247,-7.51,0.87,-0.27,7.56
24.562971115112305,-7.76,1.76,-0.48,7.97
24.57413387298584,-7.71,2.68,-0.87,8.2
24.59455394744873,-7.32,3.51,-1.13,8.19
24.59499192237854,-6.86,4.69,-1.77,8.49
24.602893829345703,-6.55,5.95,-2.48,9.18
24.612810134887695,-6.44,7.16,-3.32,10.18
24.624191999435425,-6.13,8.38,-4.34,11.25
24.645036935806274,-5.55,9.6,-5.16,12.23
24.64552092552185,-4.61,10.44,-5.76,12.78
24.652832984924316,-3.41,10.77,-5.77,12.68
24.662959098815918,-2.24,10.78,-5.3,12.21
24.674163818359375,-1.34,10.94,-4.45,11.88
24.694751024246216,-0.98,11.06,-3.46,11.62
24.695181846618652,-0.99,10.88,-2.51,11.2
24.702935934066772,-1.3,10.71,-1.56,10.9
24.712913990020752,-1.69,10.5,-0.73,10.66
24.724239826202393,-1.95,10.4,0.13,10.58
24.74457883834839,-1.81,10.26,0.9,10.45
24.745060920715332,-1.61,9.83,1.43,10.06
24.75286102294922,-1.65,9.38,1.68,9.67
24.76298499107361,-1.83,9.14,1.64,9.46
24.774263858795166,-1.94,9.01,1.54,9.34
24.7953679561615,-1.96,8.77,1.3,9.07
24.795833110809326,-1.98,8.43,0.98,8.71
24.802902936935425,-2.35,8.24,0.6,8.58
24.812917947769165,-2.95,8.29,0.13,8.8
24.824198007583618,-3.49,8.25,-0.41,8.96
24.844732999801636,-3.94,7.91,-1.13,8.9
24.845221042633057,-4.15,7.17,-1.42,8.4
24.852951049804688,-3.95,6.48,-1.24,7.68
24.86309289932251,-4.07,6.09,-0.84,7.37
24.87433099746704,-4.5,5.79,-0.65,7.36
24.895035982131958,-5.16,5.4,-0.78,7.5
24.89550495147705,-6.05,4.99,-0.89,7.89
24.903419017791748,-6.89,4.54,-0.92,8.3
24.913012981414795,-7.6,3.99,-0.86,8.62
24.924230098724365,-8.1,3.41,-0.53,8.8
24.944720029830933,-8.52,2.74,-0.25,8.95
24.945197105407715,-8.71,1.8,-0.14,8.89
24.953001022338867,-8.89,1.1,0.25,8.96
24.96308708190918,-8.75,0.69,0.54,8.79
24.974382877349854,-8.36,0.13,0.58,8.38
24.995023012161255,-8.39,-0.11,0.51,8.4
24.99550199508667,-8.62,-0.15,0.45,8.63
25.00306797027588,-8.87,-0.57,0.31,8.89
25.012997150421143,-9.01,-1.33,0.18,9.1
25.024302005767822,-8.69,-2.09,0.21,8.94
25.044384002685547,-8.26,-2.57,0.45,8.66
25.044867038726807,-7.84,-3.01,0.73,8.42
25.05298614501953,-7.56,-3.84,0.56,8.49
25.063028812408447,-7.29,-4.8,0.39,8.73
25.074379920959473,-6.72,-5.43,0.37,8.64
25.094767093658447,-6.1,-5.7,0.5,8.36
25.095240116119385,-5.76,-5.88,0.85,8.27
25.103091955184937,-5.68,-6.26,0.97,8.5
25.113062858581543,-5.58,-7.11,0.78,9.07
25.124359130859375,-5.37,-7.98,0.66,9.64
25.144815921783447,-4.97,-8.49,0.79,9.86
25.145297050476074,-4.39,-8.76,1.04,9.85
25.153034925460815,-3.96,-9.01,1.18,9.91
25.16315793991089,-3.66,-9.29,1.27,10.06
25.174340963363647,-3.42,-9.54,1.2,10.2
25.194779872894287,-3.21,-9.71,1.08,10.28
25.195252895355225,-3.05,-9.8,0.93,10.3
25.20324397087097,-2.95,-9.72,0.65,10.17
25.213130950927734,-2.86,-9.65,0.46,10.07
25.224448919296265,-2.79,-9.49,0.25,9.89
25.245378017425537,-2.6,-9.3,-0.15,9.65
25.245862007141113,-2.34,-9.19,-0.45,9.49
25.253145933151245,-2.02,-9.02,-0.56,9.26
25.26324200630188,-1.63,-8.74,-0.49,8.9
25.274367809295654,-1.23,-8.53,-0.38,8.62
25.294949054718018,-0.92,-8.36,-0.33,8.41
25.295424938201904,-0.99,-8.14,-0.3,8.2
25.30318307876587,-1.36,-7.9,-0.32,8.02
25.31319808959961,-1.97,-7.55,-0.43,7.81
25.324527978897095,-2.64,-7.0,-0.67,7.51
25.345436096191406,-2.99,-6.44,-0.77,7.14
25.345913887023926,-3.1,-5.93,-0.67,6.72
25.35311794281006,-2.93,-5.43,-0.47,6.18
25.36326313018799,-2.62,-4.95,-0.23,5.6
25.37443208694458,-2.56,-4.48,-0.11,5.16
25.39551591873169,-2.79,-4.07,-0.25,4.94
25.395997047424316,-3.09,-3.71,-0.56,4.86
25.403167009353638,-3.36,-3.31,-0.76,4.77
25.413174152374268,-3.42,-2.84,-0.62,4.48
25.424519062042236,-3.4,-2.33,-0.03,4.12
25.444504022598267,-3.59,-1.86,0.57,4.08
25.444989919662476,-4.16,-1.75,0.98,4.61
25.45315980911255,-4.76,-1.96,1.28,5.3
25.46322011947632,-5.42,-2.04,1.59,6.0
25.474515914916992,-6.25,-1.77,1.91,6.77
25.49463415145874,-6.84,-1.4,2.19,7.31
25.4951069355011,-7.13,-1.19,2.35,7.6
25.50326108932495,-7.02,-1.15,2.42,7.51
25.51338291168213,-6.52,-1.0,2.56,7.07
25.524571895599365,-6.21,-0.63,2.67,6.78
25.54459810256958,-6.29,-0.25,2.54,6.78
25.545072078704834,-6.43,-0.11,2.12,6.77
25.553242921829224,-6.77,0.29,1.64,6.97
25.563359022140503,-7.06,1.03,1.13,7.22
25.57455587387085,-6.59,1.54,0.61,6.79
25.594830989837646,-5.81,1.87,0.13,6.1
25.59530997276306,-4.8,2.26,-0.11,5.3
25.60325813293457,-4.01,2.63,-0.19,4.79
25.613271951675415,-4.06,3.23,-0.71,5.23
25.62464714050293,-4.96,4.21,-1.73,6.73
25.644591808319092,-6.24,5.68,-3.24,9.03
25.645083904266357,-7.31,7.23,-4.39,11.17
25.653291940689087,-7.27,8.16,-4.92,11.98
25.663477897644043,-6.06,8.88,-4.9,11.81
25.67464590072632,-4.43,9.54,-4.15,11.3
25.69525909423828,-2.88,9.59,-3.24,10.52
25.69573211669922,-2.22,9.58,-2.77,10.21
25.703343868255615,-2.17,9.95,-2.44,10.47
25.713376998901367,-2.37,10.29,-1.97,10.74
25.724684953689575,-2.66,10.59,-1.29,10.99
25.74564790725708,-2.78,11.02,-0.56,11.37
25.74612808227539,-2.54,11.35,0.13,11.63
25.753320932388306,-2.27,11.22,0.52,11.45
25.76341485977173,-2.12,10.9,0.65,11.12
25.774964809417725,-1.98,10.79,0.55,10.98
25.796000003814697,-1.72,10.71,0.38,10.85
25.796469926834106,-1.63,10.46,0.12,10.58
25.803411960601807,-1.62,10.1,-0.24,10.23
25.813491821289062,-1.61,9.62,-0.52,9.76
25.824740886688232,-1.8,9.08,-0.67,9.28
25.845144987106323,-2.1,8.51,-0.77,8.79
25.845616817474365,-2.46,7.92,-0.76,8.32
25.853384017944336,-2.61,7.34,-0.58,7.81
25.863522052764893,-2.76,6.77,-0.15,7.31
25.874897956848145,-3.2,6.31,0.26,7.07
25.89459991455078,-3.73,5.69,0.5,6.82
25.89507293701172,-4.23,5.1,0.64,6.65
25.903429985046387,-4.66,4.62,0.93,6.62
25.9133780002594,-5.05,4.18,1.3,6.68
25.92462682723999,-5.8,3.85,1.88,7.21
25.944597959518433,-6.63,3.49,2.43,7.87
25.945080995559692,-7.16,2.96,2.75,8.22
25.953444004058838,-7.49,2.33,3.01,8.4
25.963540077209473,-7.78,1.69,3.29,8.61
25.974797010421753,-8.04,0.99,3.56,8.84
25.99485993385315,-8.33,0.25,3.83,9.17
25.99533987045288,-8.76,-0.23,3.92,9.59
26.003554821014404,-8.99,-0.65,3.7,9.74
26.013454914093018,-9.47,-0.99,3.14,10.02
26.025028944015503,-9.69,-1.52,2.55,10.13
26.04470682144165,-9.43,-2.18,1.92,9.86
26.045190811157227,-8.95,-2.45,1.39,9.38
26.053439140319824,-8.64,-2.59,0.88,9.06
26.06356906890869,-8.67,-2.88,0.16,9.13
26.074626922607422,-8.67,-3.61,-0.58,9.4
26.094058990478516,-8.45,-4.54,-1.11,9.65
26.09450387954712,-7.95,-5.4,-1.11,9.67
26.103489875793457,-7.22,-6.01,-0.7,9.42
26.113497018814087,-6.55,-6.46,-0.33,9.2
26.124794006347656,-6.08,-6.88,-0.25,9.18
26.144531965255737,-5.71,-7.35,-0.34,9.31
26.145008087158203,-5.13,-7.89,-0.58,9.42
26.153466939926147,-4.46,-8.26,-0.71,9.41
26.16361403465271,-3.74,-8.43,-0.77,9.25
26.17482089996338,-3.1,-8.61,-0.72,9.17
26.194704055786133,-2.68,-8.89,-0.6,9.3
26.19518280029297,-2.45,-9.18,-0.39,9.5
26.203556060791016,-2.2,-9.32,-0.16,9.57
26.21353006362915,-1.84,-9.33,0.08,9.51
26.225162982940674,-1.56,-9.21,0.32,9.34
26.245215892791748,-1.49,-9.03,0.56,9.16
26.245695114135742,-1.61,-8.89,0.73,9.06
26.253520965576172,-1.38,-8.93,0.81,9.07
26.263603925704956,-1.06,-8.9,0.79,8.99
26.27513599395752,-0.83,-8.69,0.67,8.75
26.294780015945435,-0.58,-8.53,0.52,8.56
26.29525899887085,-0.4,-8.46,0.18,8.47
26.30363702774048,-0.6,-8.26,-0.14,8.28
26.313590049743652,-1.05,-7.78,-0.45,7.86
26.325467109680176,-1.4,-7.18,-0.74,7.35
26.344944953918457,-1.47,-6.74,-0.82,6.94
26.345422983169556,-1.48,-6.39,-0.66,6.59
26.353621006011963,-1.29,-6.09,-0.46,6.24
26.363648891448975,-1.23,-5.81,-0.27,5.94
26.375253915786743,-1.46,-5.47,-0.19,5.66
26.394383907318115,-1.87,-5.18,-0.21,5.51
26.39486002922058,-2.46,-4.97,-0.25,5.55
26.40365695953369,-2.86,-4.81,-0.3,5.6
26.413711071014404,-3.11,-4.63,-0.2,5.58
26.424829959869385,-3.45,-4.09,-0.01,5.35
26.444422006607056,-3.57,-3.57,0.24,5.05
26.44489812850952,-3.53,-3.22,0.36,4.79
26.453696966171265,-3.54,-2.92,0.47,4.61
26.46391487121582,-3.53,-2.87,0.5,4.57
26.475243091583252,-3.66,-3.08,0.3,4.79
26.494790077209473,-4.08,-3.26,-0.14,5.22
26.495265007019043,-4.31,-3.56,-0.38,5.6
26.503731966018677,-4.13,-4.08,-0.32,5.81
26.51359987258911,-3.74,-4.54,0.06,5.88
26.525169849395752,-3.75,-4.83,0.6,6.14
26.544253826141357,-4.66,-4.45,1.09,6.53
26.544734001159668,-5.69,-3.57,1.13,6.81
26.55363392829895,-6.56,-3.08,0.97,7.31
26.563786029815674,-7.37,-2.63,0.75,7.86
26.574949026107788,-7.56,-2.06,0.7,7.86
26.594359874725342,-7.2,-1.63,0.78,7.42
26.594850063323975,-6.94,-1.12,0.88,7.08
26.60369896888733,-6.79,-0.62,0.82,6.86
26.61375093460083,-6.54,-0.51,0.92,6.62
26.62534189224243,-6.17,-0.31,1.17,6.28
26.6439528465271,-6.2,0.43,1.71,6.44
26.644442081451416,-6.41,1.65,1.89,6.88
26.653738021850586,-7.45,2.71,0.67,7.95
26.663810968399048,-8.52,3.76,-0.14,9.31
26.6750750541687,-9.01,5.46,-0.7,10.55
26.693984031677246,-8.87,7.11,-1.14,11.42
26.694463968276978,-8.3,8.34,-1.27,11.83
26.703784942626953,-7.29,9.05,-1.01,11.66
26.71382713317871,-6.19,9.46,-0.21,11.3
26.725024938583374,-5.6,10.11,0.45,11.56
26.743646144866943,-5.32,11.29,0.52,12.49
26.744123935699463,-4.96,11.96,0.02,12.94
26.7537260055542,-4.99,12.22,-0.3,13.2
26.76374912261963,-5.21,12.87,-0.31,13.88
26.77505588531494,-5.4,13.64,-0.09,14.67
26.79369306564331,-5.68,13.86,-0.12,14.97
26.794175148010254,-5.71,13.48,-0.54,14.64
26.803879976272583,-5.32,12.61,-1.21,13.73
26.813755989074707,-4.35,11.58,-1.45,12.45
26.82540202140808,-2.94,10.57,-1.21,11.03
26.844192028045654,-1.54,9.47,-1.0,9.64
26.844666957855225,-0.67,8.03,-1.04,8.12
26.853786945343018,-0.42,6.61,-1.06,6.7
26.86435294151306,-0.45,5.59,-0.85,5.67
26.87505006790161,-0.6,4.72,-0.42,4.77
26.8938250541687,-0.9,3.87,0.06,3.97
26.894311904907227,-1.49,3.15,0.55,3.52
26.903970956802368,-1.81,2.46,1.29,3.31
26.914305925369263,-1.79,1.96,2.3,3.51
26.925095081329346,-1.93,1.86,3.04,4.05
26.94388198852539,-1.88,1.3,3.24,3.96
26.944368839263916,-2.04,0.51,2.88,3.56
26.953871965408325,-2.13,-0.11,1.95,2.88
26.964524030685425,-1.76,-0.58,1.35,2.29
26.97507381439209,-2.71,0.26,1.64,3.17
26.993803024291992,-3.9,1.68,2.27,4.81
26.99427890777588,-4.51,2.22,2.89,5.79
27.00386095046997,-5.99,2.74,3.57,7.49
27.014453887939453,-7.24,2.97,3.89,8.73
27.02548313140869,-7.63,2.75,3.99,9.03
27.043819904327393,-8.25,3.22,3.84,9.65
27.044304847717285,-9.2,4.13,3.54,10.68
27.05386209487915,-9.61,4.0,3.2,10.88
27.064309120178223,-10.86,3.97,2.5,11.83
27.075084924697876,-11.8,3.32,1.7,12.37
27.092899799346924,-11.46,1.35,0.8,11.56
27.093863010406494,-9.97,-0.81,-0.42,10.01
27.103760957717896,-7.58,-2.14,-1.32,7.98
27.114418983459473,-6.08,-2.68,-1.61,6.83
27.12527894973755,-5.57,-3.0,-1.39,6.47
27.14308214187622,-5.34,-3.87,-1.19,6.7
27.143857955932617,-5.25,-4.79,-0.85,7.15
27.153934001922607,-5.08,-5.52,-0.4,7.51
27.16433596611023,-4.99,-5.82,0.22,7.66
27.175123929977417,-5.07,-6.03,0.7,7.9
27.193379878997803,-4.99,-6.53,0.85,8.26
27.19417095184326,-4.53,-7.05,0.69,8.4
27.20400595664978,-3.98,-7.25,0.67,8.29
27.214377880096436,-3.67,-7.06,1.0,8.01
27.225510120391846,-3.46,-6.91,1.35,7.84
27.24262809753418,-3.17,-6.95,1.55,7.79
27.243973970413208,-2.88,-7.04,1.49,7.75
27.25398588180542,-2.6,-7.23,0.95,7.74
27.26426100730896,-2.42,-7.63,0.52,8.02
27.275618076324463,-2.28,-7.86,0.28,8.18
27.293319940567017,-2.24,-7.9,0.02,8.21
27.2940731048584,-2.33,-7.93,-0.14,8.26
27.304081916809082,-2.4,-7.79,-0.22,8.15
27.31428599357605,-2.38,-7.62,-0.31,7.98
27.325603008270264,-2.24,-7.5,-0.39,7.83
27.34301495552063,-2.29,-7.32,-0.58,7.69
27.34395408630371,-2.45,-7.09,-0.77,7.54
27.353979110717773,-2.45,-6.89,-0.95,7.37
27.36414909362793,-2.28,-6.81,-1.07,7.26
27.37564492225647,-2.07,-6.73,-1.07,7.12
27.393237113952637,-1.91,-6.46,-1.21,6.84
27.394003868103027,-1.67,-6.19,-1.28,6.53
27.403968811035156,-1.4,-6.09,-1.32,6.38
27.414228916168213,-1.44,-6.04,-1.22,6.32
27.42560911178589,-1.7,-5.71,-1.04,6.04
27.44270086288452,-2.01,-5.23,-0.81,5.66
27.44406795501709,-2.33,-4.64,-0.39,5.2
27.454057931900024,-2.65,-3.97,-0.21,4.77
27.464210033416748,-2.79,-3.58,-0.33,4.55
27.47550106048584,-2.79,-3.47,-0.4,4.47
27.492384910583496,-2.55,-3.37,-0.42,4.24
27.493939876556396,-2.48,-2.92,-0.49,3.86
27.504013061523438,-2.57,-2.28,-0.25,3.44
27.514111042022705,-2.79,-1.62,-0.02,3.22
27.525625944137573,-3.67,-0.91,-0.1,3.78
27.543843984603882,-4.21,-0.45,-0.22,4.23
27.544301986694336,-4.0,-0.45,-0.23,4.03
27.55421495437622,-3.48,-0.34,0.03,3.49
27.564152002334595,-3.06,0.11,0.71,3.14
27.57565689086914,-2.58,0.5,1.31,2.93
27.593097925186157,-1.99,0.81,1.58,2.66
27.594139099121094,-1.89,1.27,1.65,2.81
27.604243993759155,-2.08,1.98,1.67,3.32
27.614089965820312,-2.55,2.72,1.75,4.11
27.625722885131836,-3.07,3.54,1.9,5.05
27.642897129058838,-3.24,4.35,2.01,5.78
27.644070148468018,-2.69,4.67,1.9,5.71
27.654232025146484,-1.77,4.61,1.72,5.22
27.664089918136597,-0.89,4.88,1.42,5.15
27.67583990097046,-0.66,5.48,1.21,5.65
27.692969799041748,-0.69,5.77,1.46,5.99
27.6942081451416,-0.56,5.95,1.65,6.19
27.70423984527588,-0.37,6.01,1.78,6.27
27.71401309967041,-0.44,5.83,1.95,6.16
27.72573184967041,-0.94,5.78,2.0,6.18
27.74333691596985,-1.25,5.84,2.06,6.31
27.744237899780273,-1.13,5.63,1.96,6.06
27.75425910949707,-0.71,5.24,1.56,5.51
27.764278888702393,-0.23,4.79,1.24,4.95
27.775871992111206,0.16,4.24,0.92,4.34
27.793023109436035,0.31,3.79,0.51,3.83
27.794180870056152,0.56,3.5,0.18,3.54
27.804254055023193,0.82,3.1,0.11,3.2
27.814096927642822,1.06,2.59,0.05,2.79
27.82589292526245,1.07,2.13,0.11,2.38
27.84353494644165,0.84,1.73,0.24,1.93
27.844291925430298,0.58,1.31,0.28,1.45
27.854312896728516,0.42,0.95,0.27,1.07
27.86436414718628,0.32,0.65,0.08,0.72
27.875831127166748,0.38,0.31,-0.05,0.49
27.892741918563843,0.55,0.03,0.04,0.55
27.894274950027466,0.68,-0.06,0.05,0.68
27.904422998428345,0.72,-0.19,0.03,0.74
27.91417098045349,0.7,-0.35,-0.01,0.78
27.925891876220703,0.6,-0.47,-0.14,0.77
27.942294120788574,0.51,-0.69,-0.13,0.86
27.944254875183105,0.57,-0.93,-0.06,1.09
27.954205989837646,0.52,-0.94,0.03,1.07
27.964346885681152,0.3,-0.86,0.17,0.92
27.97546696662903,0.09,-0.86,0.24,0.89
27.99291181564331,0.3,-0.77,0.39,0.91
27.994235038757324,0.3,-0.62,0.3,0.75
28.004289150238037,0.07,-0.51,-0.08,0.52
28.01421594619751,0.17,-1.05,-0.25,1.09
28.025970935821533,0.35,-0.77,-0.52,0.99
28.04269313812256,0.16,-0.45,-0.53,0.71
28.044338941574097,-0.06,-0.48,-0.58,0.75
28.05436897277832,-0.14,-0.58,-0.43,0.73
28.064406871795654,-0.25,-0.56,-0.17,0.63
28.07596206665039,-0.32,-0.42,0.06,0.53
28.092723846435547,-0.23,-0.28,0.15,0.39
28.094321966171265,-0.06,-0.27,0.15,0.31
28.104424953460693,0.09,-0.38,0.2,0.43
28.114317893981934,0.25,-0.42,0.31,0.57
28.12578582763672,0.32,-0.38,0.2,0.53
28.142282962799072,0.16,-0.39,0.05,0.42
28.144492149353027,-0.14,-0.3,-0.12,0.35
28.154408931732178,-0.28,-0.27,-0.3,0.49
28.16449213027954,-0.2,-0.31,-0.27,0.45
28.17594599723816,0.03,-0.36,-0.35,0.5
28.191797018051147,0.24,-0.51,-0.3,0.63
28.194288969039917,0.24,-0.45,-0.12,0.52
28.20446801185608,0.22,-0.25,-0.11,0.35
28.214370012283325,0.16,-0.18,-0.18,0.3
28.22588586807251,0.06,-0.16,-0.23,0.28
28.242494106292725,0.05,-0.39,-0.09,0.4
28.244415998458862,0.32,-0.57,0.19,0.68
28.25443196296692,0.52,-0.56,0.29,0.81
28.26450490951538,0.31,-0.59,0.33,0.74
28.27589511871338,-0.19,-0.11,0.31,0.37
28.291877031326294,-0.68,0.38,0.02,0.77
28.294410943984985,-0.63,0.25,-0.38,0.77
28.30456781387329,-0.35,0.19,-0.35,0.53
28.31443500518799,0.11,0.13,-0.18,0.24
28.32591199874878,0.23,0.17,-0.02,0.28
28.34269905090332,0.09,0.28,0.19,0.35
28.344511032104492,0.3,0.24,0.04,0.38
28.354506015777588,0.25,0.2,0.1,0.33
28.36458110809326,0.05,0.14,0.25,0.29
28.37601089477539,0.09,-0.06,0.34,0.35
28.392895936965942,0.18,-0.08,0.47,0.5
28.394585132598877,0.0,0.1,0.3,0.31
28.404508113861084,-0.36,0.39,0.18,0.56
28.414462089538574,-0.48,0.68,-0.1,0.83
28.42588186264038,-0.33,0.73,-0.41,0.89
28.44277811050415,-0.12,0.62,-0.38,0.73
28.4445059299469,0.04,0.58,-0.16,0.6
28.45475482940674,0.03,0.54,0.03,0.54
28.46462106704712,-0.13,0.47,0.04,0.48
28.475908994674683,-0.17,0.31,-0.09,0.36
28.493249893188477,0.02,0.09,-0.09,0.12
28.49457883834839,0.31,0.03,-0.05,0.31
28.504631996154785,0.38,0.02,-0.01,0.38
28.514584064483643,0.22,0.0,-0.1,0.24
28.526001930236816,-0.08,0.08,-0.34,0.35
28.543205976486206,-0.15,0.18,-0.59,0.63
28.54452085494995,0.04,0.15,-0.7,0.71
28.55456781387329,0.1,0.04,-0.6,0.6
28.564656019210815,0.34,-0.16,-0.29,0.47
28.576000928878784,0.67,-0.33,-0.02,0.74
28.592607975006104,-0.07,-0.39,0.11,0.41
28.594696044921875,-0.13,-0.34,-0.01,0.36
28.604635000228882,0.23,-0.33,0.14,0.42
28.6147198677063,0.08,-0.35,0.21,0.41
28.626219987869263,0.14,-0.31,0.16,0.37
28.643383979797363,0.07,-0.31,0.32,0.45
28.644575119018555,-0.01,-0.18,0.48,0.51
28.654594898223877,-0.15,0.09,0.47,0.5
28.664757013320923,-0.28,0.26,0.23,0.44
28.67605996131897,-0.3,0.38,-0.05,0.48
28.692927837371826,-0.26,0.51,-0.16,0.59
28.694644927978516,-0.25,0.58,-0.07,0.63
28.704790115356445,-0.26,0.6,0.02,0.65
28.714664936065674,-0.31,0.41,0.14,0.53
28.726161003112793,-0.21,0.09,0.34,0.4
28.743000030517578,-0.01,0.02,0.32,0.32
28.74464201927185,0.12,0.28,-0.06,0.31
28.754621982574463,0.15,0.59,-0.86,1.05
28.764791011810303,-0.04,0.73,-1.4,1.57
28.77594804763794,-0.32,0.73,-1.41,1.61
28.793234825134277,-0.22,0.6,-0.96,1.15
28.794550895690918,0.12,0.41,-0.48,0.64
28.804714918136597,0.45,0.15,-0.15,0.49
28.81476092338562,0.6,-0.05,-0.16,0.62
28.82620596885681,0.45,-0.19,-0.26,0.55
28.843740940093994,0.19,-0.31,-0.15,0.39
28.84471297264099,-0.06,-0.36,0.09,0.37
28.85465097427368,-0.3,-0.36,0.47,0.66
28.864799976348877,-0.55,-0.3,0.94,1.12
28.876089096069336,-0.61,-0.14,1.11,1.27
28.89250898361206,-0.33,-0.08,1.0,1.05
28.894739151000977,0.0,-0.09,0.76,0.76
28.90480899810791,0.13,-0.12,0.52,0.54
28.914749145507812,0.17,-0.05,0.47,0.5
28.926292896270752,0.21,0.04,0.37,0.42
28.94231605529785,0.15,0.03,0.2,0.25
28.944703102111816,-0.12,0.09,0.03,0.15
28.95475697517395,-0.22,0.17,-0.07,0.28
28.964712142944336,-0.15,0.1,-0.04,0.18
28.976351022720337,-0.04,0.0,0.08,0.08
28.991814136505127,-0.06,-0.04,0.22,0.23
28.994728088378906,-0.11,-0.03,0.31,0.33
29.00485897064209,-0.12,0.04,0.22,0.25
29.014760971069336,-0.07,0.04,0.03,0.08
29.02617883682251,0.05,0.06,-0.13,0.15
29.042141914367676,0.15,0.19,-0.3,0.38
29.044754028320312,0.1,0.17,-0.45,0.49
29.054733991622925,0.04,0.03,-0.53,0.53
29.064852952957153,0.03,-0.02,-0.46,0.46
29.076262950897217,0.14,-0.08,-0.28,0.32
29.09207582473755,0.23,-0.11,-0.15,0.29
29.094754934310913,0.23,-0.08,-0.23,0.33
29.104862928390503,0.17,-0.1,-0.33,0.38
29.114946842193604,0.05,-0.14,-0.23,0.27
29.126230001449585,-0.09,-0.12,0.04,0.15
29.142679929733276,-0.07,-0.17,0.26,0.31
29.14480686187744,-0.06,-0.14,0.33,0.36
29.154940128326416,-0.09,-0.1,0.27,0.3
29.164877891540527,0.06,-0.2,0.13,0.24
29.176285982131958,0.26,-0.35,0.1,0.44
29.19176483154297,0.3,-0.42,0.06,0.51
29.194663047790527,0.32,-0.41,0.0,0.52
29.204893112182617,0.4,-0.3,0.06,0.5
29.2149019241333,-0.32,-0.17,0.0,0.36
29.226396083831787,-0.47,-0.23,-0.41,0.66
29.241407871246338,-0.14,-0.02,-0.44,0.46
29.2448091506958,0.04,0.1,-0.33,0.34
29.255035877227783,0.1,0.07,-0.34,0.36
29.264895915985107,0.02,0.11,-0.23,0.25
29.276432991027832,-0.07,0.13,-0.01,0.14
29.290886878967285,-0.11,0.08,0.29,0.32
29.294737815856934,-0.09,0.08,0.58,0.59
