time,ax,ay,az,atotal
0.011696815490722656,0.5,0.37,-0.2,0.65
0.017685890197753906,0.91,0.22,-0.14,0.94
0.02760171890258789,0.87,-0.02,-0.09,0.87
0.041214942932128906,0.57,-0.17,0.0,0.59
0.04754304885864258,0.34,-0.17,0.11,0.39
0.05769681930541992,0.2,-0.05,0.13,0.24
0.0676417350769043,0.07,0.04,0.07,0.1
0.0778348445892334,-0.1,0.05,-0.01,0.11
0.0918128490447998,-0.25,0.05,-0.05,0.25
0.09789896011352539,-0.33,0.03,-0.07,0.33
0.10777091979980469,-0.29,0.01,-0.04,0.29
0.11781883239746094,-0.22,-0.02,-0.06,0.22
0.1279609203338623,-0.12,-0.01,-0.07,0.13
0.1432819366455078,0.0,0.0,-0.02,0.02
0.14800691604614258,0.11,-0.01,0.03,0.11
0.1579608917236328,0.18,-0.02,0.06,0.19
0.16794085502624512,0.21,0.02,0.04,0.21
0.1780388355255127,0.18,0.06,0.02,0.19
0.1933889389038086,0.13,0.07,0.01,0.14
0.19808197021484375,0.02,-0.01,0.01,0.02
0.2079930305480957,-0.09,-0.08,-0.01,0.12
0.21855974197387695,-0.14,-0.07,-0.05,0.16
0.22862887382507324,-0.13,-0.03,-0.08,0.15
0.24381184577941895,-0.07,0.05,-0.06,0.1
0.24981689453125,0.01,0.06,-0.07,0.09
0.25859785079956055,0.05,0.03,-0.02,0.06
0.27344703674316406,0.1,-0.04,-0.02,0.1
0.27861595153808594,0.12,-0.05,0.0,0.13
0.2929508686065674,0.1,0.0,0.02,0.1
0.29831695556640625,0.08,0.04,0.01,0.09
0.3080167770385742,0.02,0.04,0.02,0.04
0.31815195083618164,-0.02,0.02,0.03,0.04
0.32868099212646484,-0.06,-0.01,0.02,0.06
0.34431886672973633,-0.04,0.0,0.0,0.04
0.34973573684692383,0.01,-0.02,0.0,0.02
0.35836172103881836,0.05,-0.02,-0.02,0.05
0.37270283699035645,0.05,0.0,-0.03,0.05
0.37848591804504395,0.02,0.0,0.01,0.02
0.39360570907592773,0.0,-0.01,0.0,0.01
0.3996598720550537,-0.01,-0.01,-0.01,0.01
0.4083399772644043,0.0,-0.01,-0.01,0.01
0.42387986183166504,0.03,-0.01,0.0,0.03
0.42845582962036133,0.0,-0.01,0.02,0.02
0.4439868927001953,-0.02,0.01,0.0,0.02
0.44833803176879883,-0.05,0.03,0.01,0.05
0.45812082290649414,-0.07,0.03,0.01,0.07
0.4682588577270508,-0.12,-0.02,0.03,0.12
0.4787259101867676,-0.12,-0.06,0.13,0.18
0.4931659698486328,-0.11,-0.03,0.06,0.12
0.49864888191223145,-0.07,0.07,-0.08,0.12
0.5084600448608398,0.01,0.11,0.0,0.11
0.5183830261230469,0.11,0.04,0.01,0.11
0.5289108753204346,0.17,-0.02,-0.11,0.2
0.5428247451782227,0.24,-0.04,-0.12,0.27
0.5486197471618652,0.29,-0.01,-0.09,0.3
0.5582199096679688,0.28,0.01,-0.09,0.29
0.5684027671813965,0.18,-0.02,-0.07,0.19
0.5794267654418945,0.06,-0.02,-0.08,0.1
0.5932419300079346,-0.02,-0.01,-0.08,0.08
0.5998439788818359,-0.09,0.02,0.01,0.09
0.6084790229797363,-0.13,-0.01,0.04,0.13
0.6218888759613037,-0.13,-0.04,0.02,0.13
0.6284489631652832,-0.11,-0.04,0.01,0.11
0.6427960395812988,-0.06,-0.02,0.01,0.06
0.6487617492675781,-0.04,0.03,0.02,0.05
0.6584787368774414,-0.02,0.04,-0.02,0.04
0.6685047149658203,0.0,0.03,-0.03,0.04
0.6789937019348145,0.04,-0.02,-0.03,0.05
0.6942520141601562,0.1,-0.04,-0.03,0.11
0.7006850242614746,0.13,-0.02,-0.01,0.13
0.7088747024536133,0.11,0.0,0.01,0.11
0.7236478328704834,0.06,-0.01,0.01,0.06
0.7286489009857178,0.05,0.0,0.0,0.05
0.7433428764343262,0.03,0.02,-0.01,0.03
0.7486720085144043,-0.02,0.0,0.0,0.02
0.7586498260498047,-0.04,0.0,0.01,0.04
0.7686588764190674,-0.06,-0.01,0.0,0.06
0.7788457870483398,-0.06,-0.01,0.02,0.06
0.7940959930419922,-0.06,0.02,0.01,0.06
0.7988858222961426,-0.02,0.02,0.0,0.02
0.8089158535003662,-0.01,-0.01,0.04,0.04
0.8187978267669678,0.0,-0.03,0.08,0.08
0.8292968273162842,-0.01,-0.02,0.06,0.06
0.8433117866516113,-0.01,-0.01,0.03,0.03
0.848801851272583,0.0,0.01,0.0,0.01
0.8589029312133789,0.03,0.0,-0.02,0.03
0.8687410354614258,0.04,0.0,-0.03,0.05
0.8790349960327148,0.04,0.0,-0.04,0.05
0.8939158916473389,0.0,0.02,-0.04,0.04
0.9001579284667969,-0.02,0.02,-0.02,0.03
0.9092748165130615,0.0,0.01,0.0,0.01
0.9232487678527832,0.02,-0.02,-0.01,0.03
0.9288640022277832,0.04,-0.03,0.0,0.05
0.9433999061584473,0.05,-0.03,-0.02,0.06
0.9488518238067627,0.08,-0.02,-0.02,0.08
0.9588699340820312,0.06,0.01,-0.02,0.06
0.9689478874206543,0.0,0.02,0.01,0.02
0.9793589115142822,-0.06,0.02,0.03,0.06
0.9936919212341309,-0.07,0.0,0.02,0.07
0.9988539218902588,-0.04,0.0,0.01,0.04
1.0086698532104492,-0.01,-0.02,0.0,0.02
1.0189578533172607,0.05,-0.02,-0.02,0.05
1.02878999710083,0.07,0.01,-0.02,0.07
1.043694019317627,0.08,0.05,-0.03,0.09
1.0494918823242188,0.09,0.06,-0.02,0.1
1.0590319633483887,0.07,0.06,0.02,0.09
1.0690479278564453,0.03,-0.02,0.05,0.06
1.0796170234680176,-0.01,-0.05,0.01,0.05
1.0933349132537842,-0.05,-0.01,-0.01,0.05
1.0994648933410645,-0.05,0.03,-0.01,0.05
1.1096858978271484,-0.04,0.06,0.0,0.07
1.1189990043640137,-0.04,0.01,0.0,0.04
1.129746913909912,-0.07,-0.06,0.02,0.09
1.1447319984436035,-0.07,-0.09,0.01,0.11
1.1511008739471436,-0.04,-0.05,0.0,0.06
1.1594758033752441,0.0,0.01,-0.01,0.01
1.1745147705078125,0.05,0.04,-0.01,0.06
1.1795969009399414,0.04,0.03,-0.01,0.05
1.1937448978424072,0.05,0.0,-0.04,0.06
1.1991219520568848,0.05,-0.01,-0.04,0.06
1.2092328071594238,0.05,0.0,-0.03,0.05
1.2193539142608643,0.07,0.02,-0.02,0.07
1.2298028469085693,0.06,0.01,0.01,0.06
1.2436957359313965,0.06,0.0,0.01,0.06
1.2495007514953613,0.04,-0.01,0.01,0.04
1.2594389915466309,0.02,0.0,0.04,0.04
1.2693839073181152,0.04,0.01,0.03,0.05
1.2799599170684814,0.01,0.02,-0.02,0.03
1.2940268516540527,-0.01,0.05,-0.02,0.05
1.2996108531951904,-0.03,0.02,-0.03,0.04
1.3094077110290527,-0.05,0.01,0.01,0.05
1.3194680213928223,-0.07,-0.02,0.0,0.07
1.3298959732055664,-0.08,-0.05,0.02,0.09
1.344207763671875,-0.08,-0.03,0.03,0.09
1.3497610092163086,-0.02,-0.01,-0.01,0.02
1.3594727516174316,0.02,0.02,0.02,0.03
1.3694548606872559,0.04,0.05,0.01,0.06
1.3800597190856934,0.01,0.04,0.03,0.05
1.394169807434082,-0.02,0.03,0.03,0.04
1.399857997894287,-0.04,0.01,0.04,0.05
1.4094128608703613,-0.07,-0.01,0.07,0.09
1.4194989204406738,-0.06,-0.04,0.05,0.08
1.4303069114685059,-0.02,-0.03,0.02,0.04
1.4446649551391602,0.01,0.0,0.02,0.02
1.449854850769043,0.03,0.0,0.01,0.03
1.460042953491211,0.07,0.0,0.0,0.07
1.4694418907165527,0.07,0.01,-0.01,0.07
1.4802837371826172,0.06,0.02,-0.02,0.06
1.4946868419647217,0.06,0.03,-0.02,0.06
1.4997539520263672,0.05,0.03,-0.03,0.06
1.509666919708252,0.02,0.0,-0.06,0.06
1.5196967124938965,0.01,-0.04,-0.05,0.06
1.5301978588104248,0.03,0.0,-0.04,0.05
1.5446629524230957,0.02,0.09,-0.09,0.12
1.5498247146606445,0.03,0.11,-0.09,0.14
1.5597538948059082,0.02,0.06,-0.04,0.07
1.5695528984069824,0.05,-0.03,-0.04,0.07
1.5802388191223145,0.03,-0.09,-0.07,0.11
1.5951168537139893,0.0,-0.08,-0.08,0.11
1.6003289222717285,-0.03,-0.02,-0.09,0.09
1.6104698181152344,-0.02,0.06,-0.11,0.12
1.619771957397461,0.02,0.1,-0.07,0.12
1.6302757263183594,0.07,0.06,-0.09,0.12
1.6447787284851074,0.07,-0.01,-0.09,0.11
1.6503520011901855,0.04,-0.04,-0.06,0.08
1.6602997779846191,0.01,-0.04,-0.01,0.04
1.6698129177093506,-0.03,0.01,-0.03,0.04
1.680459976196289,-0.07,0.04,-0.04,0.09
1.6947879791259766,-0.12,0.02,-0.06,0.13
1.7002019882202148,-0.08,-0.05,-0.06,0.11
1.7099099159240723,-0.05,-0.06,-0.06,0.09
1.7199387550354004,-0.06,-0.03,-0.08,0.1
1.7303228378295898,-0.06,0.02,-0.09,0.11
1.7460570335388184,-0.04,0.07,-0.03,0.08
1.7499418258666992,-0.03,0.08,-0.01,0.08
1.7600197792053223,-0.03,0.04,0.02,0.05
1.7699828147888184,-0.02,-0.02,0.03,0.04
1.7804317474365234,-0.02,-0.07,0.01,0.07
1.7955427169799805,-0.05,-0.08,-0.01,0.09
1.800611972808838,-0.06,-0.07,-0.06,0.11
1.8110179901123047,0.0,0.0,-0.12,0.12
1.820138931274414,0.04,0.1,-0.2,0.22
1.8304448127746582,0.04,0.15,-0.18,0.23
1.8454170227050781,0.02,0.12,-0.09,0.15
1.8504877090454102,-0.04,0.04,0.03,0.06
1.8607239723205566,-0.08,-0.01,0.01,0.08
1.8698248863220215,0.0,-0.01,0.01,0.01
1.88051176071167,0.03,0.01,0.01,0.03
1.895232915878296,0.05,0.03,0.03,0.06
1.9002809524536133,0.03,0.06,-0.02,0.06
1.9100127220153809,0.06,0.06,-0.16,0.18
1.9201939105987549,0.05,0.04,-0.18,0.19
1.9306297302246094,0.01,0.01,-0.08,0.08
1.945556879043579,0.01,0.02,-0.02,0.03
1.950779914855957,0.0,0.09,-0.1,0.13
1.960947036743164,-0.01,0.15,-0.1,0.18
1.9702038764953613,-0.04,0.12,-0.05,0.13
1.9808578491210938,-0.03,0.03,0.0,0.04
1.9957690238952637,0.08,-0.05,0.04,0.1
2.000638961791992,0.24,-0.05,0.15,0.28
2.0109357833862305,0.44,0.06,0.5,0.66
2.020373821258545,0.86,0.09,0.91,1.25
2.0308678150177,1.39,0.01,0.87,1.63
2.045341968536377,1.75,-0.12,0.57,1.84
2.050416946411133,1.64,-0.11,0.4,1.69
2.060516834259033,1.05,0.04,-0.16,1.06
2.0703940391540527,0.36,0.25,-0.8,0.91
2.0809528827667236,-0.19,0.45,-1.05,1.15
2.0958688259124756,-0.74,0.57,-1.07,1.42
2.101132869720459,-1.17,0.6,-1.03,1.67
2.1112349033355713,-1.38,0.58,-0.88,1.73
2.120558738708496,-1.21,0.54,-0.7,1.49
2.130929946899414,-0.78,0.52,-0.53,1.07
2.1459689140319824,-0.23,0.57,-0.35,0.7
2.150826930999756,0.34,0.67,-0.36,0.83
2.16050386428833,0.86,0.73,-0.47,1.22
2.1704728603363037,1.36,0.78,-0.26,1.58
2.1810808181762695,1.66,0.72,0.34,1.84
2.19600772857666,1.79,0.54,0.82,2.04
2.2006888389587402,1.77,0.4,0.87,2.01
2.2108728885650635,1.7,0.48,0.59,1.86
2.2205567359924316,1.64,0.73,0.32,1.82
2.231091022491455,1.49,0.95,0.25,1.78
2.2457289695739746,1.27,0.89,0.19,1.56
2.2510738372802734,1.03,0.67,0.01,1.22
2.2610397338867188,0.84,0.48,-0.12,0.97
2.270624876022339,0.72,0.36,0.01,0.8
2.2810397148132324,0.72,0.31,0.34,0.85
2.2957568168640137,0.81,0.31,0.59,1.04
2.3013768196105957,1.07,0.23,0.6,1.24
2.311199903488159,1.4,0.07,0.48,1.48
2.320835828781128,1.65,-0.01,0.32,1.68
2.331462860107422,1.73,-0.05,0.19,1.74
2.3466389179229736,1.61,-0.14,0.05,1.61
2.3509297370910645,1.37,-0.15,-0.11,1.38
2.360978841781616,1.07,-0.14,-0.25,1.1
2.3707518577575684,0.74,-0.22,-0.32,0.83
2.381408929824829,0.46,-0.38,-0.4,0.71
2.3954367637634277,0.37,-0.57,-0.41,0.79
2.400960922241211,0.5,-0.81,-0.5,1.07
2.4108057022094727,0.9,-1.07,-0.61,1.52
2.4209837913513184,1.33,-1.33,-0.82,2.05
2.431459903717041,1.69,-1.52,-1.13,2.53
2.4458680152893066,2.07,-1.57,-1.16,2.84
2.451162815093994,2.33,-1.56,-0.71,2.89
2.4611759185791016,2.24,-1.5,-0.5,2.74
2.4708168506622314,2.07,-1.33,-0.66,2.54
2.4807488918304443,2.13,-1.12,-0.59,2.47
2.4952478408813477,2.25,-0.97,-0.4,2.48
2.5011940002441406,2.33,-0.9,-0.33,2.51
2.510887861251831,2.35,-0.8,-0.3,2.5
2.521103858947754,2.25,-0.66,-0.32,2.36
2.531477928161621,2.19,-0.5,-0.2,2.25
2.5455479621887207,2.13,-0.38,0.0,2.16
2.5507829189300537,1.94,-0.26,0.0,1.95
2.5607919692993164,1.71,-0.15,0.0,1.71
2.570969820022583,1.37,-0.01,-0.1,1.37
2.58096981048584,1.01,0.17,-0.17,1.03
2.5958099365234375,0.73,0.4,-0.38,0.91
2.601055860519409,0.61,0.58,-0.49,0.97
2.6110620498657227,0.53,0.62,-0.39,0.9
2.621091842651367,0.25,0.43,-0.23,0.54
2.631570816040039,-0.21,0.09,-0.29,0.36
2.6456427574157715,-0.68,-0.1,-0.56,0.88
2.6512327194213867,-0.89,-0.08,-0.6,1.07
2.661040782928467,-1.03,0.0,-0.46,1.12
2.6711409091949463,-1.21,0.08,-0.38,1.27
2.6816940307617188,-1.4,0.03,-0.26,1.42
2.696047782897949,-1.59,-0.18,-0.43,1.65
2.7013168334960938,-1.57,-0.35,-0.62,1.72
2.711244821548462,-1.46,-0.42,-0.66,1.65
2.721498966217041,-1.46,-0.49,-0.65,1.67
2.7316789627075195,-1.75,-0.68,-0.55,1.95
2.7468857765197754,-2.3,-0.84,-0.58,2.51
2.7516989707946777,-2.89,-0.73,-0.61,3.04
2.761414051055908,-3.33,-0.24,-0.17,3.34
2.7712340354919434,-4.0,0.34,0.17,4.01
2.781789779663086,-5.08,0.79,0.03,5.14
2.796661853790283,-6.41,0.73,-0.65,6.48
2.8014519214630127,-7.36,0.17,-1.97,7.62
2.811386823654175,-7.72,-0.54,-2.86,8.25
2.8213398456573486,-5.88,-1.55,-3.53,7.03
2.8322668075561523,-2.28,-2.54,-4.48,5.63
2.846782922744751,0.51,-2.32,-5.45,5.94
2.8517868518829346,1.67,-0.44,-5.3,5.57
2.8624658584594727,-0.12,1.48,-2.9,3.25
2.8713278770446777,-2.43,2.1,1.38,3.49
2.881803035736084,-2.62,3.17,4.4,6.02
2.8962268829345703,-0.85,3.49,4.05,5.41
2.901526927947998,1.52,2.89,2.78,4.28
2.9115169048309326,3.08,1.75,1.69,3.92
2.9213879108428955,3.89,0.34,0.87,4.0
2.9319798946380615,4.02,-0.64,0.03,4.07
2.9463510513305664,3.87,-0.95,-0.97,4.1
2.9516029357910156,3.57,-0.58,-1.42,3.88
2.9615249633789062,1.44,-0.09,-1.37,1.98
2.9716320037841797,-0.83,0.23,-1.08,1.38
2.9820079803466797,-2.33,0.43,-0.8,2.5
2.9966440200805664,-3.29,0.41,-0.42,3.34
3.001715898513794,-3.25,0.2,0.14,3.25
3.0116398334503174,-2.11,-0.02,0.34,2.13
3.021678924560547,-0.78,-0.03,0.0,0.78
3.0321550369262695,0.32,0.09,-0.5,0.6
3.046870708465576,1.14,0.21,-0.76,1.38
3.0517287254333496,1.57,0.3,-0.6,1.7
3.0616838932037354,1.62,0.29,-0.54,1.73
3.0722248554229736,1.36,0.17,-0.67,1.52
3.082042932510376,1.01,0.03,-0.63,1.19
3.0968689918518066,0.81,-0.05,-0.64,1.03
3.1023197174072266,0.66,-0.04,-0.49,0.82
3.112466812133789,0.59,0.08,-0.28,0.65
3.121664047241211,0.48,0.09,-0.39,0.62
3.132384777069092,0.2,0.12,-0.37,0.43
3.14672589302063,-0.05,0.09,-0.1,0.14
3.1520237922668457,-0.27,0.06,0.18,0.33
3.1616618633270264,-0.49,0.05,0.18,0.52
3.1717119216918945,-0.57,0.02,-0.07,0.57
3.1823840141296387,-0.42,0.0,-0.02,0.42
3.196809768676758,-0.16,-0.02,-0.04,0.16
3.201852798461914,0.12,-0.02,-0.22,0.25
3.2119998931884766,0.29,-0.01,-0.25,0.38
3.22189998626709,0.29,0.06,-0.17,0.34
3.2324447631835938,0.19,0.07,-0.02,0.2
3.246699810028076,0.07,0.02,0.03,0.07
3.2517929077148438,0.07,-0.02,0.02,0.07
3.2620368003845215,0.08,-0.01,0.01,0.08
3.2723469734191895,0.03,0.06,-0.07,0.09
3.2819900512695312,-0.09,0.06,-0.15,0.18
3.2972397804260254,-0.16,0.0,-0.04,0.16
3.3020458221435547,-0.25,-0.02,0.2,0.32
3.3118929862976074,-0.3,0.03,0.29,0.41
3.3220949172973633,-0.28,0.13,0.05,0.31
3.332566738128662,-0.26,0.19,-0.19,0.37
3.3468549251556396,-0.2,0.16,-0.36,0.44
3.352012872695923,-0.13,0.06,-0.36,0.38
3.362177848815918,-0.1,0.01,-0.19,0.21
3.3724617958068848,-0.07,-0.02,-0.11,0.13
3.382302761077881,-0.1,0.03,0.01,0.1
3.397444725036621,-0.12,0.09,0.18,0.23
3.4025278091430664,-0.14,0.12,-0.02,0.18
3.412484884262085,-0.18,0.14,-0.13,0.26
3.4226138591766357,-0.23,0.04,-0.01,0.23
3.432188034057617,-0.39,-0.02,0.1,0.4
3.447895050048828,-0.51,-0.02,0.16,0.53
3.4521188735961914,-0.51,0.03,0.03,0.51
3.462312698364258,-0.44,0.13,-0.16,0.48
3.4719958305358887,-0.36,0.13,-0.33,0.5
3.483189821243286,-0.22,0.06,-0.43,0.48
3.497459888458252,0.0,-0.04,-0.23,0.23
3.502746820449829,0.2,-0.08,0.08,0.22
3.5126190185546875,0.45,-0.03,-0.03,0.45
3.522364854812622,0.54,0.07,-0.38,0.66
3.5328407287597656,0.44,0.09,-0.5,0.67
3.547821044921875,0.19,0.01,-0.53,0.56
3.553719997406006,-0.08,-0.05,-0.49,0.49
3.564465045928955,-0.28,-0.07,-0.13,0.31
3.572316884994507,-0.4,-0.02,0.3,0.5
3.5829548835754395,-0.41,0.05,0.5,0.64
3.5977540016174316,-0.31,0.09,0.24,0.4
3.6028099060058594,-0.14,0.11,-0.16,0.23
3.6131649017333984,0.03,0.08,-0.36,0.37
3.6224617958068848,0.25,0.02,-0.39,0.46
3.632859706878662,0.45,-0.04,-0.29,0.53
3.6474857330322266,0.46,-0.08,-0.06,0.47
3.652754783630371,0.34,-0.03,0.06,0.34
3.6628527641296387,0.13,0.02,-0.03,0.13
3.6724557876586914,0.0,0.04,-0.1,0.1
3.6830098628997803,-0.12,0.02,0.05,0.13
3.6981678009033203,-0.22,0.0,0.12,0.25
3.702913761138916,-0.24,0.02,0.03,0.24
3.7135329246520996,-0.27,0.09,-0.02,0.28
3.7225279808044434,-0.37,0.15,-0.11,0.41
3.733013868331909,-0.42,0.19,-0.25,0.52
3.7478437423706055,-0.4,0.21,-0.27,0.52
3.753135919570923,-0.27,0.24,-0.35,0.5
3.7640767097473145,-0.05,0.24,-0.46,0.52
3.772589921951294,0.15,0.18,-0.68,0.71
3.783195972442627,0.31,0.14,-0.89,0.95
3.7985599040985107,0.43,0.2,-0.76,0.89
3.802684783935547,0.45,0.35,-0.63,0.84
3.8123228549957275,0.47,0.55,-0.51,0.88
3.822664737701416,0.45,0.73,-0.38,0.93
3.8325557708740234,0.47,0.76,-0.36,0.96
3.8472900390625,0.55,0.75,-0.34,0.99
3.8529210090637207,0.64,0.79,-0.21,1.03
3.862781047821045,0.72,1.01,-0.13,1.24
3.8726909160614014,0.86,1.35,-0.11,1.6
3.883267879486084,1.03,1.58,-0.16,1.89
3.897512912750244,1.21,1.91,0.14,2.26
3.9030227661132812,1.47,2.27,0.65,2.78
3.912740707397461,1.89,2.74,0.81,3.42
3.922740936279297,2.38,3.07,-0.04,3.88
3.9332118034362793,2.67,2.98,-1.2,4.17
3.948518753051758,2.64,2.65,-1.6,4.06
3.9531948566436768,2.35,2.17,-1.3,3.45
3.963817834854126,1.95,1.69,-1.19,2.84
3.9729318618774414,1.61,1.4,-1.35,2.52
3.983710765838623,1.29,1.31,-1.24,2.21
3.9987077713012695,0.78,1.25,-1.02,1.79
4.0031867027282715,0.19,1.19,-1.02,1.57
4.012930870056152,-0.22,1.0,-1.05,1.46
4.022891998291016,-0.18,0.9,-1.31,1.59
4.0331950187683105,0.57,0.94,-2.27,2.52
4.048856735229492,1.45,1.02,-3.12,3.58
4.053590774536133,2.07,1.19,-3.24,4.02
4.063133716583252,2.06,1.35,-3.15,3.99
4.073019027709961,1.5,1.22,-3.22,3.75
4.083868026733398,0.89,1.26,-3.01,3.38
4.098343849182129,0.38,1.42,-2.63,3.01
4.103283882141113,-0.1,1.56,-2.49,2.94
4.113078832626343,-0.56,1.64,-2.55,3.08
4.123251914978027,-0.95,1.69,-2.55,3.2
4.133522033691406,-1.28,1.81,-2.3,3.19
4.148349761962891,-1.41,1.99,-2.0,3.15
4.153472900390625,-1.35,2.3,-1.91,3.28
4.163096904754639,-1.25,2.7,-2.08,3.63
4.173308849334717,-1.09,3.28,-1.97,3.97
4.183802843093872,-0.74,3.78,-1.55,4.15
4.198128700256348,-0.31,3.85,-1.1,4.01
4.203273773193359,-0.06,3.07,-0.9,3.19
4.212900876998901,-0.14,1.9,-0.9,2.1
4.223228931427002,-0.27,1.4,-0.89,1.68
4.233417987823486,-0.37,1.56,-0.82,1.8
4.2474658489227295,-0.51,1.88,-0.8,2.1
4.253290891647339,-0.84,1.97,-0.97,2.35
4.263236999511719,-1.17,1.83,-1.16,2.46
4.27335786819458,-1.36,1.51,-1.1,2.31
4.283969879150391,-1.3,1.04,-0.85,1.86
4.29896092414856,-1.14,0.5,-0.63,1.39
4.303573846817017,-0.99,-0.02,-0.66,1.19
4.313284873962402,-0.76,-0.42,-0.56,1.03
4.323332786560059,-0.6,-0.63,-0.41,0.96
4.3337860107421875,-0.67,-0.75,-0.62,1.18
4.348899841308594,-0.78,-0.9,-0.79,1.42
4.353421926498413,-0.83,-1.24,-0.69,1.64
4.363294839859009,-0.78,-1.81,-0.63,2.06
4.373325824737549,-0.57,-2.46,-0.6,2.59
4.38403582572937,-0.14,-3.03,-0.32,3.05
4.3982319831848145,0.33,-3.48,-0.18,3.5
4.40352201461792,0.82,-3.95,-0.38,4.05
4.413357734680176,1.18,-4.48,-0.66,4.67
4.423362731933594,1.31,-5.04,-0.94,5.29
4.434014797210693,1.06,-5.5,-1.45,5.78
4.448248863220215,0.6,-5.78,-1.75,6.06
4.453560829162598,0.04,-5.84,-1.56,6.04
4.463470935821533,-0.67,-5.77,-1.29,5.95
4.473292827606201,-1.43,-5.68,-1.2,5.97
4.484038829803467,-2.06,-5.5,-0.89,5.94
4.497798919677734,-2.43,-5.27,-0.33,5.81
4.50390100479126,-2.61,-5.12,0.46,5.76
4.514933824539185,-2.55,-5.19,1.05,5.87
4.523552894592285,-2.49,-5.41,1.14,6.06
4.533993721008301,-2.32,-5.3,1.12,5.89
4.549083709716797,-2.11,-4.7,1.39,5.33
4.553923845291138,-2.01,-3.47,2.0,4.48
4.5647759437561035,-2.09,-1.95,2.76,3.97
4.573455810546875,-2.39,-0.64,2.91,3.81
4.5843188762664795,-2.59,0.08,2.69,3.73
4.599284887313843,-2.43,0.13,3.14,3.97
4.604313850402832,-2.13,-0.37,3.74,4.31
4.61522102355957,-1.96,-1.07,3.79,4.39
4.623673915863037,-1.78,-1.33,3.61,4.23
4.634196758270264,-1.82,-1.02,3.17,3.79
4.648956775665283,-2.23,-0.72,2.42,3.36
4.653976917266846,-2.83,-0.92,1.65,3.4
4.6636810302734375,-3.42,-1.63,1.18,3.96
4.673661708831787,-3.87,-2.46,1.01,4.69
4.684306859970093,-4.21,-3.22,0.94,5.38
4.69916296005249,-4.33,-3.86,1.11,5.9
4.704360008239746,-4.21,-3.15,0.78,5.31
4.715779781341553,-3.52,-0.27,-2.47,4.3
4.723867893218994,-1.37,2.26,-3.47,4.36
4.734272003173828,2.64,5.79,3.6,7.31
4.749197959899902,4.07,8.55,6.81,11.66
4.754165887832642,1.1,7.98,-1.33,8.16
4.764616966247559,-0.1,6.78,-7.75,10.29
4.773946762084961,1.01,6.38,-3.4,7.29
4.784263849258423,2.72,6.45,5.96,9.19
4.799572944641113,3.35,6.16,6.56,9.6
4.804119825363159,2.34,4.42,2.91,5.78
4.813811779022217,0.89,0.08,4.12,4.21
4.823988914489746,0.67,-3.67,5.47,6.62
4.834405899047852,0.73,-6.38,3.15,7.15
4.848804950714111,0.37,-6.8,2.11,7.12
4.85424280166626,-0.57,-3.82,2.48,4.58
4.864015817642212,-1.14,-0.05,0.37,1.19
4.873932838439941,-1.3,2.0,-1.48,2.8
4.884578704833984,-1.54,3.18,-0.47,3.56
4.899382829666138,-1.9,3.81,0.36,4.27
4.904077053070068,-2.33,2.57,0.36,3.48
4.914348840713501,-2.07,0.21,0.5,2.13
4.924234867095947,-1.26,-1.78,0.18,2.18
4.9345879554748535,-0.28,-2.82,-0.52,2.88
4.948263883590698,0.76,-1.84,-0.42,2.03
4.9546799659729,1.41,0.52,-0.31,1.53
4.964784860610962,1.36,2.11,-0.71,2.6
4.974034786224365,0.91,2.53,-0.96,2.85
4.984717845916748,0.37,1.87,-1.32,2.31
4.99951696395874,-0.04,0.47,-1.65,1.71
5.004833698272705,-0.26,-0.8,-1.58,1.78
5.014715909957886,-0.5,-1.38,-1.03,1.79
5.024909019470215,-0.64,-1.03,-0.65,1.37
5.03478479385376,-0.61,-0.3,-0.51,0.84
5.0497727394104,-0.58,0.17,-0.11,0.61
5.054928779602051,-0.46,0.12,0.08,0.48
5.066559791564941,-0.16,-0.19,0.13,0.28
5.074229717254639,0.22,-0.13,0.09,0.27
5.0851569175720215,0.55,0.46,-0.15,0.73
5.098651885986328,0.77,1.02,-0.1,1.28
5.104745864868164,0.63,1.01,0.11,1.19
5.11543083190918,0.31,0.49,0.12,0.59
5.124322891235352,0.03,-0.21,-0.07,0.22
5.13477897644043,-0.25,-0.52,0.39,0.69
5.148916721343994,-0.56,-0.28,0.54,0.82
5.154448986053467,-0.61,0.19,0.09,0.64
5.164532899856567,-0.59,0.55,0.02,0.8
5.1744139194488525,-0.46,0.7,-0.06,0.83
5.185510873794556,-0.28,0.69,-0.36,0.82
5.199609756469727,-0.04,0.84,-0.84,1.18
5.204486846923828,0.22,0.92,-0.93,1.32
5.214331865310669,0.32,0.75,-0.24,0.85
5.224500894546509,0.26,0.35,0.16,0.46
5.235288858413696,0.24,-0.03,-0.2,0.31
5.25020170211792,0.17,-0.12,-0.16,0.26
5.254573822021484,-0.01,0.04,-0.01,0.04
5.2644689083099365,-0.15,0.29,-0.15,0.35
5.274551868438721,-0.09,0.63,-0.17,0.65
5.285607814788818,0.11,1.2,0.13,1.21
5.299166917800903,0.52,1.53,0.08,1.61
5.304498910903931,0.85,1.41,0.16,1.65
5.314292907714844,1.01,1.24,0.5,1.67
5.324522018432617,0.96,1.08,0.14,1.45
5.334451913833618,0.94,0.87,-0.66,1.44
5.349395751953125,0.93,0.65,-0.77,1.37
5.354953765869141,0.77,0.33,-0.58,1.01
5.364568710327148,0.57,-0.04,-0.52,0.77
5.374541759490967,0.47,-0.37,-0.08,0.6
5.385215759277344,0.22,-0.56,0.61,0.85
5.400255918502808,0.02,-0.59,0.6,0.84
5.4050939083099365,-0.06,-0.38,0.05,0.38
5.414504051208496,-0.07,-0.2,-0.51,0.55
5.425119876861572,-0.11,-0.27,-0.73,0.78
5.435252904891968,-0.29,-0.44,-0.65,0.83
5.450094699859619,-0.61,-0.39,-0.93,1.17
5.455010890960693,-0.79,-0.12,-0.81,1.13
5.464702844619751,-0.81,0.09,-0.08,0.81
5.474612712860107,-0.63,0.09,0.39,0.74
5.485189914703369,-0.44,0.0,0.42,0.6
5.499415874481201,-0.2,0.08,-0.04,0.21
5.50492787361145,-0.17,0.35,0.1,0.4
5.514632701873779,-0.18,0.98,0.26,1.02
5.52472186088562,-0.07,1.89,0.15,1.89
5.535356044769287,-0.14,2.61,0.19,2.62
5.54987096786499,0.06,3.61,0.51,3.64
5.554833889007568,0.22,4.32,0.27,4.33
5.56471586227417,0.42,4.44,-0.47,4.48
5.575074911117554,0.62,4.35,-0.53,4.42
5.5853798389434814,1.07,4.1,-0.89,4.32
5.600115776062012,1.82,3.49,-1.38,4.17
5.605020046234131,2.74,2.63,-1.14,3.96
5.614748954772949,3.48,1.79,-0.87,4.0
5.625030040740967,3.8,1.39,-0.81,4.12
5.635470867156982,3.66,2.01,-0.06,4.17
5.650047779083252,1.87,2.43,0.7,3.14
5.654901027679443,-0.59,2.54,0.79,2.72
5.665000915527344,-2.59,2.99,0.12,3.95
5.6748878955841064,-3.83,3.32,0.05,5.06
5.6855998039245605,-4.35,3.56,0.58,5.65
5.700393915176392,-4.04,4.04,-0.33,5.72
5.7051568031311035,-2.9,4.45,-2.26,5.77
5.714944839477539,-1.42,4.53,-3.0,5.61
5.72507381439209,-0.08,4.23,-2.76,5.05
5.735719919204712,0.65,3.8,-2.61,4.65
5.749868869781494,0.63,3.85,-2.71,4.75
5.755352973937988,0.06,3.84,-3.05,4.9
5.765053749084473,-0.64,4.21,-3.18,5.31
5.775117874145508,-1.31,4.61,-2.65,5.47
5.78575587272644,-1.83,4.88,-1.47,5.41
5.800191879272461,-1.84,4.92,-0.77,5.3
5.8055419921875,-1.29,4.4,-1.23,4.74
5.814981937408447,-0.31,3.54,-1.83,3.99
5.825170040130615,0.87,2.65,-1.81,3.32
5.835059881210327,2.08,1.92,-1.28,3.1
5.850221872329712,3.12,1.36,-0.94,3.53
5.8551788330078125,3.8,0.99,-1.18,4.1
5.86505389213562,3.82,0.84,-1.84,4.32
5.875104904174805,3.39,0.85,-1.96,4.0
5.8852128982543945,2.71,0.96,-1.4,3.19
5.8999409675598145,2.02,1.08,-0.67,2.38
5.905323028564453,1.54,1.11,-0.39,1.93
5.915137767791748,1.26,1.1,-1.05,1.97
5.925359725952148,1.15,0.87,-2.16,2.59
5.9358649253845215,1.45,0.31,-2.46,2.87
5.950203895568848,2.06,-0.48,-1.92,2.85
5.955270767211914,2.53,-1.17,-1.33,3.08
5.965112924575806,2.38,-1.65,-1.77,3.39
5.975348949432373,1.81,-1.77,-3.09,3.99
5.985346794128418,1.53,-1.74,-4.03,4.64
6.000121831893921,1.75,-2.11,-3.77,4.66
6.005669832229614,2.15,-3.17,-3.11,4.93
6.015275955200195,2.47,-4.34,-3.3,5.98
6.025363922119141,2.65,-4.92,-4.28,7.03
6.035930871963501,2.49,-5.1,-5.45,7.86
6.050769805908203,2.21,-5.31,-5.89,8.23
6.055616855621338,1.86,-5.38,-5.05,7.6
6.0655059814453125,1.38,-5.15,-4.11,6.73
6.0759358406066895,0.89,-5.03,-4.43,6.76
6.0859668254852295,0.8,-4.94,-5.01,7.08
6.1007537841796875,1.26,-4.98,-4.35,6.73
6.105897903442383,1.93,-5.27,-3.17,6.44
6.115557909011841,2.49,-5.67,-2.29,6.6
6.125519752502441,2.41,-5.83,-1.82,6.56
6.1360907554626465,1.78,-5.45,-1.51,5.92
6.151341915130615,1.34,-4.77,-0.77,5.01
6.155972957611084,1.2,-4.15,0.6,4.36
6.166873931884766,1.17,-4.06,1.5,4.48
6.17547082901001,1.11,-4.55,1.33,4.86
6.187481880187988,0.83,-5.39,0.63,5.48
6.20126485824585,0.22,-6.09,0.13,6.09
6.20644474029541,-0.62,-6.23,0.14,6.26
6.216582775115967,-1.77,-5.63,0.58,5.93
6.225721836090088,-3.12,-4.24,1.01,5.36
6.236330986022949,-4.56,-2.56,1.91,5.56
6.251173973083496,-6.1,-1.47,3.01,6.95
6.256147861480713,-7.48,-1.04,3.91,8.5
6.266809940338135,-8.29,-1.07,4.3,9.39
6.275539875030518,-8.97,-1.34,4.85,10.28
6.28631591796875,-9.17,-1.57,4.97,10.54
6.301115036010742,-9.05,-1.49,4.51,10.22
6.306305885314941,-8.84,-0.91,3.47,9.54
6.315976858139038,-8.62,0.73,2.09,8.89
6.325702905654907,-7.78,3.01,2.15,8.61
6.336180925369263,-6.21,3.01,4.09,8.02
6.3514227867126465,-2.72,3.67,1.1,4.69
6.356319904327393,0.95,4.17,-0.77,4.34
6.366789817810059,4.36,4.36,-0.35,6.17
6.375671863555908,6.21,4.31,0.56,7.57
6.386505842208862,6.97,4.39,1.18,8.32
6.400880813598633,7.46,4.47,1.2,8.77
6.406368732452393,8.09,3.47,1.13,8.87
6.416357040405273,8.02,2.55,2.03,8.65
6.425972938537598,6.46,1.83,3.28,7.47
6.4368438720703125,2.68,-0.5,2.48,3.68
6.450408935546875,0.48,-2.74,2.54,3.76
6.456714868545532,-0.83,-4.55,3.03,5.52
6.466238975524902,-1.57,-4.76,3.05,5.86
6.4759087562561035,-2.28,-3.21,1.83,4.34
6.485960960388184,-2.8,-1.1,0.75,3.1
6.500593900680542,-2.95,0.46,0.19,2.99
6.506816864013672,-3.18,1.28,0.2,3.43
6.516559839248657,-3.37,1.76,0.22,3.8
6.5260419845581055,-3.09,2.08,-0.57,3.76
6.536581039428711,-2.06,1.84,-0.75,2.86
6.551524877548218,-0.61,1.05,-0.25,1.23
6.5566089153289795,0.87,0.45,-0.51,1.1
6.567172050476074,2.19,0.55,-0.75,2.37
6.575877904891968,2.9,1.13,-0.95,3.25
6.586751937866211,2.86,1.51,-1.12,3.42
6.6009650230407715,1.89,1.29,-0.81,2.42
6.606242895126343,0.46,0.49,-0.31,0.74
6.61617374420166,-0.79,-0.38,0.61,1.06
6.626307964324951,-1.52,-0.8,1.15,2.06
6.636837959289551,-1.38,-0.63,0.58,1.62
6.652056932449341,-0.69,-0.15,-0.04,0.7
6.656719923019409,-0.34,0.18,-0.38,0.54
6.667398929595947,-0.26,0.15,-0.96,1.0
6.676201820373535,-0.14,0.0,-1.42,1.42
6.686938762664795,-0.24,0.0,-0.88,0.91
6.701866865158081,-0.41,0.16,-0.43,0.61
6.706809043884277,-0.36,0.3,-0.52,0.7
6.7174530029296875,-0.35,0.27,-0.28,0.52
6.7264180183410645,-0.33,0.34,-0.01,0.47
6.7373127937316895,-0.02,0.68,0.17,0.7
6.750633716583252,0.37,1.06,-0.18,1.13
6.7571399211883545,0.73,1.21,-0.86,1.65
6.767580986022949,0.87,0.72,-0.72,1.33
6.776213884353638,0.39,-0.36,-0.14,0.54
6.787081718444824,-0.39,-1.57,0.32,1.64
6.801774978637695,-0.96,-2.14,0.88,2.5
6.806906700134277,-0.97,-1.27,0.86,1.81
6.818532943725586,-0.83,0.3,0.45,0.99
6.8263678550720215,-0.66,1.6,0.29,1.75
6.8371758460998535,-0.3,2.28,-0.23,2.31
6.852396011352539,0.26,2.61,-0.76,2.73
6.856575012207031,0.93,2.46,-1.18,2.88
6.866667747497559,1.63,1.72,-1.42,2.76
6.8764808177948,1.9,0.53,-0.78,2.12
6.887110710144043,1.27,-0.75,0.36,1.51
6.902023792266846,0.41,-1.48,1.33,2.03
6.907191753387451,-0.27,-1.6,0.8,1.8
6.916479825973511,-0.67,-0.99,0.13,1.2
6.926686763763428,-0.69,0.15,-0.38,0.8
6.93719482421875,-0.38,1.34,-1.26,1.87
6.952383995056152,0.16,2.01,-1.83,2.72
6.956737041473389,0.69,1.69,-1.26,2.21
6.966678857803345,0.59,0.01,0.0,0.59
6.9764909744262695,-0.21,-1.52,1.39,2.07
6.987705707550049,-0.64,-2.32,1.19,2.68
7.002593040466309,-0.58,-2.22,0.25,2.3
7.007200717926025,-0.39,-0.78,-0.04,0.87
7.017084836959839,0.03,1.0,-0.69,1.21
7.026723861694336,0.75,2.26,-1.54,2.83
7.0371809005737305,1.42,2.25,-1.91,3.27
7.052091836929321,1.5,0.71,-1.52,2.25
7.0568647384643555,0.49,-1.35,-0.83,1.65
7.0668299198150635,-0.93,-2.69,-0.48,2.88
7.076626777648926,-2.3,-3.66,-0.18,4.32
7.08748984336853,-3.25,-3.71,-0.01,4.93
7.101900815963745,-2.8,-1.92,-0.37,3.41
7.107125759124756,-1.04,0.36,-1.4,1.78
7.116670846939087,0.72,1.88,-2.16,2.95
7.126895904541016,2.06,2.63,-1.33,3.59
7.137420892715454,2.17,1.83,-0.11,2.84
7.1523988246917725,0.74,-0.2,1.13,1.36
7.157091856002808,-0.63,-1.4,2.19,2.67
7.166947841644287,-1.17,-0.73,1.84,2.29
7.176910877227783,-0.73,1.65,1.91,2.62
7.187659740447998,0.34,3.78,1.8,4.2
7.202055931091309,1.62,5.38,1.19,5.74
7.207396030426025,2.23,5.47,0.26,5.91
7.2178919315338135,2.53,5.46,0.04,6.01
7.227025985717773,2.98,6.08,0.33,6.77
7.237635850906372,2.95,6.27,0.82,6.97
7.25221586227417,2.49,5.94,1.92,6.72
7.2571399211883545,1.93,4.31,2.0,5.12
7.267124891281128,2.2,3.0,1.17,3.89
7.276887893676758,3.21,2.67,0.4,4.19
7.287676811218262,4.62,3.2,0.62,5.65
7.302494049072266,5.62,3.59,2.01,6.96
7.3076019287109375,3.84,3.17,2.45,5.54
7.318121910095215,-1.3,2.61,2.46,3.81
7.3276588916778564,-5.44,1.78,2.31,6.17
7.33761191368103,-7.17,1.69,0.83,7.41
7.3528547286987305,-7.7,2.4,-0.56,8.08
7.357529878616333,-7.18,3.43,-1.43,8.08
7.3678297996521,-5.45,4.84,-1.12,7.37
7.376979827880859,-1.78,5.16,-2.18,5.87
7.3877198696136475,0.98,3.91,-3.48,5.32
7.4023847579956055,2.23,2.17,-2.98,4.3
7.407668828964233,2.57,0.44,-2.69,3.74
7.4171857833862305,2.42,-0.58,-3.12,3.99
7.427158832550049,1.94,-0.82,-3.88,4.41
7.43776273727417,1.45,-0.23,-4.63,4.85
7.45275092124939,1.06,0.91,-4.71,4.91
7.457624912261963,0.76,2.08,-3.75,4.35
7.468043804168701,0.49,2.84,-2.36,3.72
7.477115869522095,0.14,2.87,-1.82,3.4
7.488227844238281,0.13,2.38,-2.14,3.2
7.501471996307373,0.51,1.59,-2.67,3.14
7.507857799530029,1.01,1.03,-2.68,3.04
7.517837047576904,1.61,1.01,-2.17,2.88
7.527432918548584,2.36,1.39,-1.52,3.13
7.5379719734191895,3.17,1.87,-1.46,3.95
7.553116798400879,3.88,2.21,-1.92,4.86
7.55778694152832,4.29,2.17,-2.34,5.34
7.567669868469238,4.32,1.61,-2.54,5.26
7.577237844467163,3.66,0.8,-2.74,4.64
7.588062763214111,2.61,0.14,-3.04,4.0
7.602895736694336,1.54,-0.19,-3.38,3.71
7.607925891876221,0.57,-0.28,-3.52,3.57
7.61916971206665,-0.25,-0.17,-3.11,3.12
7.6274778842926025,-1.02,0.09,-2.1,2.33
7.6380228996276855,-1.84,0.41,-1.77,2.58
7.653116703033447,-2.71,0.75,-2.31,3.63
7.65789270401001,-3.25,0.94,-2.12,3.99
7.667490005493164,-3.23,0.77,-1.06,3.48
7.67741584777832,-2.58,0.26,-1.15,2.83
7.688223838806152,-1.44,-0.14,-1.84,2.34
7.70338773727417,-0.28,-0.47,-1.81,1.89
7.70763087272644,0.67,-0.8,-1.45,1.78
7.717581748962402,1.29,-1.12,-1.41,2.21
7.727550029754639,1.57,-1.37,-1.59,2.62
7.738101005554199,1.41,-1.56,-1.91,2.84
7.752539873123169,1.03,-1.83,-1.92,2.84
7.758046865463257,0.79,-2.35,-1.64,2.97
7.767660856246948,0.78,-2.94,-1.49,3.38
7.777487754821777,1.0,-3.49,-1.38,3.88
7.788311004638672,1.28,-3.95,-1.75,4.5
7.803454875946045,1.69,-4.28,-2.27,5.13
7.808259010314941,1.81,-4.61,-2.85,5.71
7.8176398277282715,1.6,-5.02,-3.47,6.3
7.827730894088745,1.28,-5.38,-3.62,6.6
7.838382720947266,0.72,-5.71,-3.27,6.61
7.854066848754883,0.01,-5.94,-3.06,6.68
7.85811185836792,-0.22,-5.59,-2.84,6.27
7.867702007293701,0.03,-5.31,-2.19,5.74
7.877600908279419,0.35,-5.62,-1.51,5.82
7.888453006744385,0.47,-5.96,-1.97,6.29
7.903075933456421,0.34,-6.17,-2.78,6.77
7.908164024353027,0.09,-6.23,-2.17,6.59
7.917837858200073,-0.36,-6.15,-0.51,6.18
7.92771577835083,-1.02,-5.82,0.97,5.98
7.938478946685791,-1.78,-5.3,1.59,5.81
7.9524009227752686,-2.29,-4.32,1.61,5.14
7.958441734313965,-2.52,-3.01,2.04,4.42
7.9687418937683105,-2.46,-1.97,3.15,4.45
7.977717876434326,-2.4,-1.69,4.12,5.05
7.988659858703613,-2.73,-1.91,3.86,5.09
8.003567934036255,-3.32,-1.94,2.93,4.83
8.008522987365723,-4.04,-1.58,2.91,5.22
8.018013000488281,-4.81,-1.0,3.87,6.25
8.027997016906738,-5.46,-0.63,4.69,7.22
8.03849482536316,-6.0,-0.64,4.83,7.72
8.053233861923218,-6.0,-0.51,4.09,7.27
8.05823278427124,-5.38,0.08,4.51,7.02
8.068081855773926,-5.03,0.89,6.7,8.42
8.077958822250366,-4.95,2.38,6.53,8.53
8.088620901107788,-4.72,4.85,5.63,8.8
8.103157043457031,-3.67,5.84,3.81,7.87
8.108256816864014,-0.76,5.65,-0.72,5.74
8.117953777313232,2.41,7.45,-2.42,8.19
8.128551959991455,5.0,7.67,-3.58,9.83
8.138510704040527,6.86,6.43,-3.53,10.04
8.153348922729492,7.34,5.57,-1.8,9.38
8.15859603881836,5.93,3.23,-0.19,6.75
8.168099880218506,3.22,-0.21,0.03,3.22
8.178603887557983,1.51,-2.95,0.83,3.41
8.188563823699951,-0.16,-5.0,2.09,5.42
8.20340085029602,-1.96,-5.66,3.12,6.75
8.208706855773926,-3.07,-4.29,3.37,6.25
8.218901872634888,-3.08,-2.06,2.97,4.74
8.228186845779419,-2.45,-0.55,2.65,3.65
8.23872184753418,-1.67,-0.14,2.76,3.22
8.25353479385376,-0.8,-0.24,2.23,2.38
8.258709907531738,0.27,-0.28,0.69,0.79
8.269361972808838,1.32,0.01,-0.39,1.37
8.278481006622314,1.91,0.75,-0.52,2.11
8.289138793945312,1.5,1.85,-0.56,2.44
8.30458402633667,0.78,2.75,-0.71,2.94
8.308681011199951,0.25,3.01,-0.74,3.1
8.318261861801147,-0.63,2.1,0.09,2.19
8.328239917755127,-1.59,0.26,0.69,1.75
8.339313983917236,-2.01,-1.79,-0.14,2.69
8.353827953338623,-1.97,-3.3,-0.86,3.93
8.362634897232056,-1.49,-3.28,-0.75,3.67
8.372462749481201,-0.58,-1.41,-0.74,1.69
8.384944915771484,0.18,0.74,-0.62,0.98
8.392753839492798,0.45,2.07,-0.09,2.12
8.406502723693848,0.56,2.56,-0.1,2.62
8.412761926651001,0.8,2.25,-0.66,2.47
8.422569751739502,0.98,1.11,-0.5,1.56
8.434990882873535,0.84,-0.1,-0.23,0.87
8.442319869995117,0.42,-0.98,0.08,1.06
8.456923961639404,-0.02,-1.31,0.24,1.33
8.462827920913696,-0.38,-1.19,0.04,1.24
8.473227977752686,-0.68,-0.48,-0.36,0.9
8.485025882720947,-0.78,0.59,-0.26,1.01
8.493014812469482,-0.65,1.24,-0.32,1.43
8.5066819190979,-0.41,1.21,-0.8,1.5
8.513047933578491,0.05,0.69,-0.9,1.13
8.52291202545166,0.41,0.19,-0.22,0.5
8.536029815673828,0.27,-0.18,1.07,1.11
8.542819023132324,0.0,-0.4,1.35,1.4
8.557472705841064,-0.17,-0.25,0.65,0.71
8.562769889831543,-0.2,0.05,-0.58,0.61
8.572645902633667,-0.21,0.08,-1.42,1.43
8.584733963012695,-0.25,-0.06,-0.8,0.84
8.59312391281128,-0.45,-0.34,0.4,0.69
8.607254981994629,-0.63,-0.51,1.29,1.52
8.612547874450684,-0.74,-0.55,1.28,1.57
8.622436046600342,-0.68,-0.22,0.8,1.07
8.633399963378906,-0.53,0.62,0.24,0.85
8.642431735992432,-0.36,1.4,-0.13,1.45
8.657382011413574,-0.12,1.55,-0.97,1.83
8.662378787994385,0.18,0.8,-1.92,2.08
8.673277854919434,0.45,-0.36,-1.97,2.05
8.68501901626587,0.57,-1.26,-0.82,1.6
8.692611932754517,0.67,-1.71,-0.02,1.83
8.70717477798462,0.89,-1.2,0.63,1.62
8.713011741638184,0.44,-0.42,1.31,1.44
8.72275972366333,-0.24,0.38,0.93,1.03
8.735198974609375,-0.48,1.02,-0.08,1.13
8.742619037628174,-0.4,1.29,-0.63,1.49
8.757222890853882,-0.3,1.25,-1.45,1.93
8.763210773468018,-0.17,0.78,-1.78,1.95
8.773082733154297,0.21,0.21,-1.66,1.68
8.784773826599121,0.45,-0.08,-1.14,1.22
8.792709827423096,0.33,-0.2,-0.29,0.48
8.807323932647705,0.32,-0.23,0.14,0.41
8.812749862670898,0.67,-0.16,0.29,0.74
8.82322382926941,0.88,-0.25,0.53,1.05
8.833894729614258,0.88,-0.39,0.42,1.05
8.842659950256348,0.91,-0.56,-0.4,1.14
8.858108043670654,0.89,-0.44,-0.36,1.05
8.862737894058228,0.48,0.18,0.68,0.85
8.872811794281006,0.07,0.73,1.18,1.38
8.885762929916382,-0.14,1.03,0.35,1.09
8.892830848693848,-0.44,0.9,-0.04,1.0
8.907397747039795,-0.89,0.35,1.1,1.45
8.9130220413208,-0.88,-0.04,1.13,1.43
8.92280387878418,-0.45,0.12,0.14,0.48
8.934525966644287,-0.35,1.05,-0.06,1.1
8.942824840545654,-0.47,2.39,0.68,2.52
8.957612037658691,-0.52,3.88,1.16,4.08
8.962833881378174,-0.3,5.26,0.93,5.35
8.973536968231201,0.33,6.29,0.79,6.34
8.98525881767273,1.05,6.6,0.92,6.74
8.992960929870605,2.07,6.77,0.61,7.1
9.007486820220947,3.62,7.2,-0.12,8.05
9.013028860092163,5.14,6.98,-0.37,8.67
9.023521900177002,6.65,5.53,-0.24,8.65
9.034053802490234,8.09,3.79,1.13,9.0
9.042905807495117,8.97,1.3,4.14,9.96
9.057878971099854,7.83,-1.7,4.72,9.29
9.062956809997559,5.87,-3.14,1.86,6.91
9.073093891143799,2.51,-3.44,1.47,4.5
9.084173917770386,-1.51,-2.81,1.93,3.72
9.093249797821045,-4.25,-1.93,0.48,4.69
9.10818099975586,-5.56,-0.48,-1.98,5.92
9.11306381225586,-6.16,1.5,-3.55,7.26
9.123215913772583,-6.56,3.43,-3.62,8.24
9.13443374633789,-6.92,4.98,-2.66,8.93
9.143223762512207,-7.31,5.63,-1.71,9.38
9.158415794372559,-7.93,4.73,-1.2,9.31
9.16371202468872,-7.36,4.28,-1.71,8.68
9.17367172241211,-5.27,4.14,-1.14,6.79
9.185991764068604,-2.44,3.6,-1.78,4.69
9.193388938903809,-0.38,3.2,-2.48,4.06
9.207599878311157,0.91,3.06,-2.72,4.19
9.21358871459961,1.81,3.06,-2.84,4.55
9.223307847976685,2.53,2.99,-3.18,5.04
9.235805034637451,3.6,2.81,-3.52,5.76
9.243157863616943,5.36,2.18,-3.16,6.59
9.258036851882935,7.0,1.43,-2.82,7.68
9.263200759887695,6.79,0.76,-3.78,7.8
9.273929834365845,4.41,0.55,-3.99,5.97
9.286348819732666,1.81,0.94,-2.78,3.44
9.29345178604126,0.24,1.56,-2.15,2.66
9.308297872543335,-0.41,1.89,-2.75,3.36
9.313279867172241,-0.29,1.89,-2.91,3.48
9.323964834213257,0.29,1.57,-2.26,2.76
9.336014747619629,0.67,1.07,-1.71,2.12
9.34326982498169,0.67,0.87,-1.31,1.7
9.358629703521729,0.31,1.08,-1.52,1.89
9.363938808441162,-0.2,1.6,-1.67,2.32
9.373795986175537,-0.51,2.2,-1.51,2.71
9.386103868484497,-0.46,2.54,-1.26,2.87
9.394112825393677,-0.21,2.37,-1.27,2.69
9.408992767333984,0.2,1.66,-1.34,2.14
9.41399884223938,0.68,0.79,-1.26,1.63
9.42399287223816,1.05,0.02,-1.25,1.63
9.436291933059692,1.27,-0.58,-1.47,2.02
9.443586826324463,1.41,-0.97,-1.68,2.39
9.458268880844116,1.57,-1.09,-1.65,2.52
9.463438034057617,1.48,-0.9,-2.0,2.64
9.473649978637695,1.1,-0.72,-2.88,3.16
9.48586893081665,1.02,-0.57,-3.04,3.25
9.493719816207886,1.24,-0.65,-2.72,3.05
9.5084068775177,1.14,-1.07,-2.97,3.35
9.514150857925415,1.04,-1.61,-3.27,3.79
9.523664951324463,1.16,-2.18,-3.25,4.08
9.535521984100342,1.37,-2.77,-3.25,4.48
9.543584823608398,1.69,-3.27,-3.03,4.76
9.558413028717041,1.91,-3.78,-2.9,5.13
9.563530921936035,1.79,-4.19,-3.52,5.75
9.574487924575806,1.44,-4.49,-4.4,6.44
9.586809873580933,1.36,-4.43,-4.66,6.57
9.59375286102295,1.33,-4.22,-4.34,6.19
9.60843276977539,0.96,-4.09,-3.85,5.69
9.613661766052246,0.37,-4.09,-3.22,5.21
9.623603820800781,-0.35,-4.16,-2.89,5.07
9.635037899017334,-0.69,-4.01,-2.8,4.93
9.643558979034424,-0.18,-3.62,-2.19,4.23
9.65893292427063,0.52,-3.31,-1.19,3.55
9.66364574432373,0.64,-3.32,-0.42,3.4
9.673722743988037,0.61,-3.5,0.32,3.56
9.685263872146606,0.75,-3.9,1.3,4.17
9.693902969360352,0.81,-4.39,2.06,4.91
9.709341049194336,0.82,-4.79,2.68,5.54
9.713920831680298,0.58,-4.94,3.17,5.89
9.723865985870361,-0.09,-4.54,2.66,5.26
9.736101865768433,-0.78,-3.53,2.52,4.4
9.743876934051514,-1.52,-2.62,2.85,4.15
9.758924961090088,-2.2,-2.11,2.6,4.0
9.763833999633789,-2.63,-2.01,2.35,4.05
9.774032831192017,-3.04,-2.48,2.14,4.46
9.785583972930908,-3.52,-3.1,1.64,4.96
9.793993949890137,-3.94,-3.43,1.85,5.54
9.80897569656372,-4.05,-3.18,2.66,5.79
9.814019918441772,-3.9,-2.09,3.13,5.41
9.823978900909424,-3.92,-0.28,2.89,4.87
9.836237907409668,-4.1,1.67,3.2,5.46
9.843930721282959,-4.18,3.21,4.23,6.75
9.858219861984253,-3.92,3.99,4.69,7.29
9.86390495300293,-3.42,3.66,4.42,6.68
9.87412691116333,-3.21,2.22,4.3,5.8
9.885601043701172,-3.12,0.84,3.87,5.04
9.894114971160889,-2.51,0.43,3.16,4.05
9.908161878585815,-1.52,1.05,2.6,3.18
9.915067911148071,-0.56,2.09,1.18,2.46
9.92418384552002,0.64,3.02,-0.35,3.1
9.93629503250122,2.03,3.75,-0.73,4.32
9.944118022918701,3.49,4.11,0.05,5.39
9.95846176147461,4.73,4.03,1.11,6.31
9.96491289138794,5.09,3.33,1.33,6.22
9.974761009216309,4.07,1.93,1.22,4.66
9.98727798461914,2.6,0.39,1.18,2.88
9.99426794052124,1.44,-0.76,0.73,1.78
10.009408950805664,0.38,-1.38,0.33,1.46
10.014198780059814,-0.58,-1.62,0.37,1.76
10.024333000183105,-1.28,-1.59,0.38,2.07
10.035677909851074,-1.57,-1.41,0.34,2.13
10.044217824935913,-1.47,-1.1,0.5,1.9
10.059460878372192,-1.2,-0.81,1.02,1.77
10.064945697784424,-0.76,-0.63,1.81,2.06
10.07500171661377,-0.2,-0.26,1.56,1.59
10.087283849716187,0.3,0.25,0.57,0.69
10.094432830810547,0.75,0.63,-0.31,1.02
10.108880043029785,1.04,0.76,-1.17,1.74
10.114832878112793,0.88,0.52,-1.61,1.9
10.124721050262451,0.34,0.02,-1.52,1.55
10.138509750366211,-0.33,-0.41,-1.45,1.54
10.144530773162842,-0.88,-0.63,-1.6,1.93
10.159135818481445,-1.19,-0.73,-1.52,2.06
10.165406703948975,-1.15,-0.81,-0.71,1.57
10.17524790763855,-0.7,-0.83,0.56,1.22
10.189335823059082,-0.16,-0.8,1.52,1.72
10.195108890533447,0.62,-0.79,1.64,1.92
10.210280895233154,1.41,-0.64,1.14,1.92
10.214941024780273,1.36,-0.36,1.67,2.18
10.224856853485107,0.26,0.0,2.41,2.42
10.23805284500122,-0.87,0.11,1.75,1.95
10.245160818099976,-1.46,-0.33,0.85,1.72
10.260283946990967,-1.68,-0.8,0.16,1.86
10.26626992225647,-1.61,-0.67,-0.22,1.75
10.275483846664429,-0.94,0.0,-0.21,0.96
10.286926746368408,0.08,0.88,-0.9,1.26
10.294780731201172,0.94,1.51,-1.25,2.17
10.309885025024414,1.24,1.91,-0.81,2.41
10.314667701721191,0.91,2.01,-0.31,2.22
10.325390815734863,0.25,1.43,0.22,1.46
10.337882041931152,-0.5,0.42,-0.01,0.65
10.344779968261719,-1.07,-0.63,-0.34,1.28
10.360309839248657,-1.27,-1.29,-0.23,1.82
10.364657878875732,-1.09,-1.33,0.03,1.71
10.374908924102783,-0.52,-0.79,0.06,0.94
10.387168884277344,0.06,-0.2,-0.5,0.54
10.394877910614014,0.48,0.18,-1.08,1.19
10.408845901489258,0.8,0.37,-1.05,1.37
10.4147047996521,1.01,0.39,-0.36,1.14
10.424743890762329,1.02,0.42,0.31,1.14
10.437033891677856,0.61,0.24,0.52,0.83
10.444760799407959,0.03,0.22,0.56,0.6
10.459993839263916,-0.48,0.38,0.2,0.64
10.46591591835022,-0.79,0.49,0.16,0.94
10.475091934204102,-0.74,0.6,0.01,0.95
10.4874267578125,-0.5,0.61,-0.46,0.91
10.494889736175537,-0.3,0.55,-0.53,0.82
10.509428977966309,-0.33,0.38,-0.26,0.56
10.516361713409424,-0.27,0.2,0.26,0.42
10.525524854660034,0.1,0.12,0.43,0.45
10.538458824157715,0.24,0.25,-0.04,0.34
10.544936895370483,-0.02,0.58,-0.52,0.77
10.559767723083496,-0.2,0.86,-0.7,1.12
10.564830780029297,-0.05,1.08,-0.79,1.33
10.575037956237793,0.22,1.03,-0.43,1.13
10.58733081817627,0.52,0.83,0.01,0.97
10.59503173828125,0.71,0.59,-0.49,1.04
10.609885931015015,0.63,0.38,-0.75,1.05
10.615015983581543,0.37,0.42,-0.21,0.59
10.624989032745361,0.29,0.46,0.0,0.54
10.637218952178955,0.31,0.39,0.19,0.53
10.64497685432434,0.25,0.34,0.15,0.44
10.660151958465576,0.1,0.32,0.07,0.34
10.66491174697876,-0.02,0.32,0.03,0.32
10.67579698562622,-0.15,0.31,-0.37,0.5
10.688218832015991,-0.09,0.18,-0.42,0.46
10.695262908935547,0.06,0.04,-0.02,0.07
10.709610939025879,0.12,-0.11,0.36,0.39
10.71613597869873,0.18,-0.2,0.48,0.55
10.725417852401733,0.24,-0.11,0.42,0.49
10.73801589012146,0.32,0.04,0.09,0.33
10.745783805847168,0.49,0.17,-0.21,0.55
10.759790897369385,0.71,0.23,-0.73,1.04
10.765594959259033,0.89,0.04,-0.87,1.24
10.775953769683838,0.75,-0.53,-0.49,1.04
10.788193702697754,-0.14,-1.04,0.68,1.25
10.795612812042236,-1.12,-1.16,1.87,2.46
10.80986499786377,-1.32,-0.7,1.87,2.39
10.816275835037231,-0.98,0.16,1.02,1.42
10.825522899627686,-0.57,1.02,0.19,1.18
10.838734865188599,-0.11,1.86,-0.46,1.91
10.845866918563843,0.42,2.77,-0.55,2.85
10.861265897750854,0.65,3.77,0.01,3.82
10.865910053253174,0.78,4.54,0.1,4.6
10.875782012939453,0.95,4.68,0.7,4.82
10.889477729797363,1.16,4.31,0.86,4.54
10.89551591873169,1.35,3.62,0.7,3.92
10.910887718200684,1.63,2.97,0.51,3.42
10.915349960327148,2.23,2.69,0.68,3.55
10.925346851348877,2.98,2.62,0.85,4.05
10.937418937683105,3.72,2.49,0.61,4.51
10.945353031158447,4.49,2.16,0.53,5.01
10.959643840789795,4.82,1.48,-0.2,5.04
10.965335845947266,4.45,0.59,-1.02,4.6
10.97570276260376,3.11,-0.29,-1.74,3.57
10.987959861755371,1.03,-1.15,-2.02,2.54
10.995687007904053,-1.02,-1.47,-2.27,2.89
11.009527921676636,-2.91,-1.16,-1.97,3.7
11.015554904937744,-4.71,-0.59,-1.29,4.91
11.0255868434906,-6.4,0.05,-0.13,6.4
11.037251949310303,-7.35,0.23,0.01,7.35
11.045564889907837,-6.71,0.6,-1.03,6.81
11.060950756072998,-4.85,1.3,-0.84,5.09
11.065521717071533,-2.65,1.92,-0.11,3.27
11.07564401626587,-0.5,2.05,0.52,2.17
11.087379932403564,0.81,1.56,0.07,1.75
11.095625877380371,1.13,1.07,-0.76,1.73
11.110591888427734,1.18,0.99,-0.87,1.76
11.115569829940796,1.18,1.1,-1.1,1.95
11.125663757324219,0.59,1.3,-1.03,1.76
11.138190746307373,-0.41,1.13,-0.89,1.49
11.14563274383545,-1.18,0.94,-0.8,1.7
11.16086483001709,-1.14,1.02,-0.95,1.8
11.165666818618774,-0.24,1.31,-1.14,1.75
11.175788879394531,0.83,1.64,-0.85,2.02
11.188592910766602,1.55,1.87,-0.77,2.54
11.19570779800415,2.27,2.19,-0.77,3.24
11.21087384223938,2.94,2.55,-0.59,3.93
11.215803861618042,3.18,2.62,-0.58,4.16
11.225744724273682,2.94,2.39,-0.43,3.81
11.238196849822998,2.26,1.97,-0.55,3.04
11.24572491645813,1.52,1.48,-1.4,2.54
11.260254859924316,1.11,0.78,-2.33,2.69
11.265865802764893,1.14,0.01,-2.69,2.92
11.275973796844482,1.34,-0.49,-2.43,2.81
11.287691831588745,1.27,-0.28,-2.14,2.5
11.295958042144775,0.94,0.68,-2.39,2.65
11.309953927993774,0.73,1.99,-2.11,2.99
11.31592082977295,0.55,3.0,-0.92,3.18
11.325959920883179,0.26,3.2,0.27,3.22
11.339210033416748,-0.14,2.62,0.48,2.66
11.345915794372559,-0.52,1.66,-0.29,1.76
11.361274719238281,-0.65,0.68,-0.99,1.36
11.36681079864502,-0.38,0.15,-1.07,1.14
11.376487731933594,0.0,0.26,-0.89,0.92
11.390176773071289,0.12,0.8,-0.89,1.2
11.396102905273438,0.02,1.42,-1.34,1.95
11.410692930221558,-0.04,1.78,-1.61,2.4
11.417593955993652,0.07,1.77,-1.39,2.25
11.426782846450806,0.31,1.44,-1.09,1.83
11.440814018249512,0.55,0.98,-1.03,1.52
11.446199893951416,0.79,0.45,-1.11,1.43
11.460868835449219,1.04,-0.06,-1.25,1.62
11.46609091758728,1.25,-0.37,-1.44,1.94
11.476866722106934,1.23,-0.43,-1.62,2.07
11.489360809326172,0.78,-0.35,-1.9,2.08
11.496181964874268,0.14,-0.31,-2.12,2.14
11.510717868804932,-0.34,-0.51,-2.32,2.39
11.51699185371399,-0.52,-0.93,-2.49,2.7
11.526916027069092,-0.23,-1.45,-2.57,2.95
11.539937019348145,0.27,-1.99,-2.81,3.45
11.546870708465576,0.78,-2.39,-2.79,3.75
11.562189817428589,1.2,-2.76,-2.54,3.93
11.567426919937134,1.57,-3.09,-2.75,4.42
11.576968908309937,1.92,-3.43,-3.22,5.08
11.590711832046509,1.86,-3.89,-3.59,5.61
11.59638786315918,1.06,-4.26,-3.95,5.9
11.610935926437378,0.16,-4.45,-4.04,6.01
11.617230892181396,-0.29,-4.41,-3.15,5.42
11.626363754272461,-0.69,-4.41,-2.21,4.98
11.63885498046875,-1.33,-4.28,-2.53,5.14
11.646277904510498,-1.64,-3.73,-3.02,5.07
11.661036968231201,-1.44,-3.03,-2.42,4.13
11.666385889053345,-1.14,-2.98,-0.92,3.32
11.677122831344604,-0.83,-3.82,0.18,3.91
11.690510749816895,-0.29,-4.9,0.43,4.92
11.696420907974243,0.22,-5.6,0.65,5.64
11.711249828338623,0.34,-5.64,0.88,5.71
11.71645975112915,-0.05,-4.68,1.07,4.8
11.726410865783691,-0.64,-3.04,1.86,3.62
11.738394737243652,-1.46,-1.4,2.35,3.1
11.746410846710205,-2.14,-0.06,2.46,3.26
11.761602878570557,-2.35,0.49,3.55,4.28
11.766477823257446,-2.32,-0.4,4.23,4.84
11.776569843292236,-2.06,-2.22,3.68,4.76
11.789916038513184,-1.54,-3.68,3.41,5.24
11.796586036682129,-1.2,-3.98,3.53,5.45
11.810730934143066,-1.27,-2.66,3.16,4.32
11.817680835723877,-1.58,-0.65,2.82,3.29
11.82669973373413,-2.01,0.73,3.07,3.74
11.840047836303711,-2.49,1.22,2.99,4.07
11.846583843231201,-2.75,0.66,2.5,3.77
11.86177396774292,-2.51,-0.83,2.39,3.56
11.867617845535278,-1.96,-2.11,2.14,3.58
11.87706470489502,-1.3,-2.48,1.63,3.23
11.88985300064087,-0.71,-1.85,1.59,2.54
11.896706819534302,-0.64,-0.91,1.31,1.71
11.911510944366455,-1.24,0.24,0.37,1.31
11.91768193244934,-1.84,1.78,-0.01,2.56
11.927210807800293,-2.06,3.25,1.5,4.12
11.940716743469238,-2.37,4.15,3.28,5.79
11.946678876876831,-2.78,4.37,2.42,5.71
11.96178388595581,-2.35,3.98,0.59,4.65
11.966877937316895,-0.95,3.31,-0.32,3.45
11.97676682472229,0.57,2.46,-0.38,2.55
11.989101886749268,1.8,1.57,-0.55,2.45
11.992859840393066,2.74,0.91,-0.88,3.01
12.007315874099731,3.37,0.71,-0.94,3.56
12.013123989105225,3.44,0.85,-0.64,3.6
12.022885799407959,2.78,0.91,-0.16,2.92
12.033642768859863,1.73,0.65,0.22,1.86
12.043165922164917,0.8,0.11,0.52,0.96
12.058523893356323,0.03,-0.43,0.83,0.93
12.063226699829102,-0.59,-0.86,1.16,1.55
12.07305097579956,-1.07,-1.15,1.38,2.09
12.083653926849365,-1.33,-1.35,1.19,2.23
12.093196868896484,-1.19,-1.44,0.59,1.95
12.108247756958008,-0.64,-1.43,0.32,1.59
12.113317966461182,-0.08,-1.13,0.55,1.25
12.123124837875366,0.27,-0.36,0.92,1.02
12.133681774139404,0.43,0.55,0.97,1.19
12.14335298538208,0.45,1.3,0.26,1.4
12.157480716705322,0.49,1.78,-0.5,1.91
12.163336753845215,0.52,1.76,-0.88,2.03
12.17314100265503,0.48,1.35,-1.06,1.78
12.18373990058899,0.28,0.74,-1.18,1.42
12.193325996398926,-0.05,0.25,-1.29,1.31
12.208387851715088,-0.44,0.05,-1.09,1.17
12.213747024536133,-0.69,-0.02,-0.5,0.85
12.22334885597229,-0.88,-0.12,0.01,0.88
12.233968734741211,-0.98,-0.33,0.17,1.04
12.243432998657227,-0.85,-0.61,0.24,1.07
12.257733821868896,-0.35,-0.84,0.37,0.98
12.2637939453125,0.22,-0.84,0.46,0.98
12.273792743682861,0.58,-0.48,0.61,0.96
12.283960819244385,0.67,0.06,0.45,0.8
12.294201850891113,0.6,0.42,0.06,0.73
12.308743953704834,0.47,0.44,-0.06,0.64
12.313838005065918,0.35,0.32,-0.01,0.47
12.323431968688965,0.27,0.25,0.11,0.38
12.333940982818604,0.26,0.26,0.26,0.45
12.343463897705078,0.22,0.27,0.22,0.41
12.35883378982544,0.1,0.24,0.0,0.26
12.364789962768555,-0.03,0.09,-0.17,0.19
12.374889850616455,-0.04,-0.12,-0.38,0.4
12.384649753570557,0.09,-0.23,-0.5,0.55
12.395500898361206,0.28,-0.21,-0.23,0.41
12.409871816635132,0.43,-0.17,0.01,0.46
12.41490888595581,0.5,-0.04,-0.04,0.5
12.424590826034546,0.5,0.16,-0.26,0.58
12.434817790985107,0.52,0.37,-0.4,0.75
12.44479489326477,0.54,0.57,-0.41,0.88
12.45974588394165,0.5,0.53,-0.22,0.76
12.464932918548584,0.42,0.16,0.09,0.45
12.474775791168213,0.33,-0.48,0.4,0.7
12.484805822372437,0.29,-1.07,0.6,1.26
12.495044708251953,0.2,-1.51,0.92,1.77
12.509902954101562,0.03,-1.57,1.16,1.95
12.515320777893066,-0.06,-1.37,1.14,1.78
12.52525281906128,-0.03,-1.1,1.37,1.75
12.534942865371704,-0.12,-0.61,1.49,1.61
12.544934749603271,-0.31,-0.13,1.07,1.12
12.559775829315186,-0.27,0.02,0.39,0.47
12.565178871154785,-0.29,-0.01,0.56,0.63
12.575019836425781,-0.47,0.15,0.95,1.07
12.584974765777588,-0.53,0.45,0.47,0.83
12.595639705657959,-0.69,0.51,0.2,0.88
12.610014915466309,-1.03,0.03,0.11,1.03
12.615341901779175,-1.28,-0.69,0.03,1.45
12.624744892120361,-0.96,-1.08,0.12,1.44
12.635009765625,-0.26,-0.84,-0.04,0.88
12.645112037658691,0.32,-0.22,-0.4,0.55
12.659976959228516,0.5,0.5,-1.01,1.23
12.665238857269287,0.63,1.22,-1.31,1.89
12.67517375946045,0.74,1.67,-0.98,2.07
12.685083866119385,0.55,1.62,-0.66,1.83
12.695740699768066,0.07,0.9,-0.19,0.92
12.710566997528076,-0.41,-0.09,0.33,0.53
12.715417861938477,-0.69,-0.92,-0.14,1.15
12.725201845169067,-0.81,-1.29,-0.39,1.57
12.735712051391602,-0.8,-0.99,-0.28,1.3
12.745729923248291,-0.6,-0.19,-0.3,0.69
12.760475873947144,-0.34,0.5,-0.39,0.71
12.765578746795654,-0.24,0.84,-0.32,0.93
12.775261878967285,-0.13,0.91,-0.2,0.94
12.785187721252441,0.07,0.6,0.07,0.6
12.795900821685791,0.04,-0.09,0.32,0.33
12.810539722442627,-0.18,-0.88,0.6,1.08
12.815518856048584,-0.22,-1.1,0.68,1.31
12.825292825698853,0.02,-0.38,0.34,0.51
12.835288047790527,0.19,0.65,-0.26,0.72
12.845839023590088,0.03,1.27,-0.4,1.33
12.860811710357666,-0.02,1.32,-0.01,1.32
12.865883827209473,0.1,0.75,-0.12,0.76
12.876818895339966,-0.16,-0.05,0.11,0.2
12.885307788848877,-0.53,-0.66,0.6,1.03
12.895992755889893,-0.47,-0.8,0.47,1.04
12.911126852035522,-0.23,-0.47,-0.14,0.54
12.916016817092896,-0.06,0.23,-0.35,0.42
12.927361011505127,-0.05,0.77,-0.27,0.81
12.935455799102783,-0.13,1.0,-0.06,1.01
12.946063041687012,0.05,0.96,-0.2,0.98
12.959878921508789,0.46,0.8,-0.42,1.01
12.966059923171997,0.62,0.75,-0.61,1.14
12.975931882858276,0.56,0.82,-0.39,1.06
12.98536491394043,0.52,0.9,-0.22,1.06
12.996078968048096,0.53,0.98,-0.43,1.19
13.010650873184204,0.55,0.9,-0.25,1.08
13.015935897827148,0.46,0.69,-0.11,0.83
13.025768756866455,0.35,0.45,-0.05,0.57
13.035445928573608,0.3,0.45,-0.2,0.57
13.046217918395996,0.29,0.78,-0.59,1.02
13.06162405014038,0.35,1.22,-0.87,1.53
13.066290855407715,0.64,1.62,-0.79,1.91
13.077301979064941,0.98,1.63,-0.27,1.92
13.08558177947998,1.31,1.02,0.14,1.66
13.096244812011719,1.23,-0.06,0.61,1.37
13.111227989196777,0.62,-1.25,1.04,1.74
13.115917921066284,-0.05,-2.31,1.12,2.56
13.125622749328613,-0.3,-2.75,0.27,2.77
13.135727882385254,-0.1,-2.11,-0.27,2.12
13.146419048309326,0.24,-0.62,-0.81,1.04
13.161519050598145,0.36,0.98,-0.84,1.34
13.166043758392334,0.24,2.18,-0.21,2.2
13.176008701324463,0.06,2.8,0.1,2.8
13.185764789581299,-0.08,2.61,0.78,2.72
13.196400880813599,-0.35,2.08,1.25,2.45
13.211198806762695,-0.42,1.97,0.78,2.16
13.216567993164062,-0.13,2.48,0.64,2.56
13.226225852966309,0.4,3.39,-0.25,3.42
13.235805988311768,0.97,4.3,-1.0,4.52
13.246364831924438,1.43,5.0,-1.61,5.44
13.26128101348877,1.82,5.24,-2.05,5.91
13.26639175415039,2.26,4.84,-1.8,5.63
13.277312755584717,2.6,3.75,-1.45,4.78
13.285863876342773,3.09,2.72,-0.82,4.19
13.29684591293335,3.52,2.03,-0.22,4.06
13.31145191192627,3.82,1.48,0.36,4.11
13.31644892692566,3.87,0.72,0.41,3.95
13.32731294631958,2.83,-0.09,0.45,2.86
13.335994720458984,0.48,-0.93,0.52,1.16
13.346523761749268,-2.11,-1.49,0.71,2.67
13.36147689819336,-4.19,-1.26,0.1,4.37
13.366634845733643,-5.81,-0.53,-0.38,5.84
13.377413749694824,-7.19,0.22,-0.35,7.2
13.385962963104248,-7.0,0.93,0.07,7.06
13.396715879440308,-5.15,1.64,0.85,5.47
13.411468029022217,-2.58,1.88,1.08,3.37
13.416822910308838,0.02,1.67,0.04,1.67
13.428309917449951,1.81,1.74,-0.7,2.6
13.436148881912231,1.91,2.04,-0.27,2.8
13.446693897247314,1.1,2.52,0.15,2.75
13.461582899093628,0.62,3.12,0.14,3.18
13.466747760772705,0.82,3.56,0.19,3.65
13.477643966674805,1.57,3.48,0.26,3.82
13.486737728118896,2.49,2.79,0.49,3.77
13.496846914291382,3.3,1.92,0.87,3.91
13.51163101196289,3.54,1.54,0.91,3.96
13.5167818069458,2.92,1.52,0.66,3.35
13.527860879898071,1.84,1.85,0.41,2.64
13.536226749420166,1.26,2.47,-0.14,2.77
13.547160863876343,1.05,2.96,-0.89,3.26
13.561908721923828,0.8,2.88,-1.47,3.33
13.566382884979248,0.33,2.35,-1.91,3.04
13.576305866241455,-0.03,1.94,-2.5,3.16
13.586673736572266,-0.13,1.75,-2.78,3.28
13.597002029418945,-0.23,1.71,-2.55,3.07
13.611340045928955,-0.37,1.84,-2.22,2.9
13.61671781539917,-0.66,2.11,-1.82,2.86
13.626312732696533,-0.97,2.4,-1.69,3.09
13.636485815048218,-1.02,2.55,-2.25,3.55
13.647083759307861,-0.69,2.53,-2.56,3.66
13.662287712097168,-0.14,2.37,-1.71,2.92
13.666707992553711,0.07,2.41,-0.66,2.49
13.676490783691406,-0.28,2.65,-1.0,2.84
13.68626880645752,-0.72,2.72,-1.53,3.2
13.69706392288208,-0.71,2.49,-0.83,2.71
13.711895942687988,-0.32,1.97,-0.18,2.0
13.717020034790039,-0.05,1.29,-0.5,1.38
13.72815990447998,0.17,0.6,-1.14,1.29
13.736524820327759,0.43,-0.1,-1.69,1.74
13.747192859649658,0.82,-0.73,-2.17,2.43
13.762305736541748,1.13,-1.22,-2.54,3.03
13.766954898834229,1.29,-1.7,-2.73,3.46
13.77831482887268,1.38,-2.21,-3.13,4.07
13.786483764648438,1.69,-2.75,-3.74,4.94
13.797587871551514,2.06,-3.16,-4.44,5.82
13.812106847763062,2.49,-3.46,-4.92,6.5
13.817083835601807,2.82,-3.73,-5.05,6.88
13.829061031341553,2.64,-4.22,-5.3,7.27
13.836658954620361,2.15,-4.69,-6.0,7.91
13.847379922866821,1.76,-4.94,-6.41,8.28
13.862330913543701,1.47,-5.07,-6.18,8.12
13.867101907730103,1.31,-4.85,-5.75,7.63
13.878037929534912,1.15,-4.65,-5.45,7.25
13.886607885360718,0.9,-4.61,-5.26,7.05
13.897648811340332,0.66,-4.81,-4.8,6.82
13.912421703338623,0.58,-5.14,-3.81,6.42
13.917224884033203,0.87,-5.32,-2.53,5.95
13.928709030151367,1.3,-5.22,-1.17,5.5
13.93671989440918,1.34,-4.86,-0.32,5.05
13.947340965270996,1.07,-4.17,-0.27,4.31
13.962832927703857,1.07,-3.19,-0.09,3.36
13.967209815979004,1.08,-2.5,0.54,2.77
13.97756576538086,0.74,-2.3,0.79,2.54
13.986737728118896,0.31,-2.62,0.82,2.76
13.997471809387207,-0.1,-3.42,0.93,3.54
14.012001037597656,-0.67,-4.07,1.18,4.29
14.017283916473389,-1.64,-4.23,0.8,4.6
14.02712082862854,-2.64,-3.56,0.04,4.43
14.036885738372803,-3.33,-2.33,-0.4,4.08
14.047482967376709,-3.76,-1.08,-0.22,3.91
14.061648845672607,-4.0,0.0,1.02,4.12
14.067033767700195,-4.17,0.51,2.64,4.96
14.076998710632324,-4.09,-0.15,3.44,5.34
14.086819887161255,-3.88,-1.6,3.8,5.66
14.097575902938843,-3.52,-2.61,4.4,6.2
14.112445831298828,-3.37,-2.6,5.0,6.56
14.117976903915405,-3.48,-1.25,4.79,6.05
14.128468036651611,-4.24,0.38,4.59,6.26
14.136989831924438,-5.44,1.24,4.09,6.91
14.14804983139038,-6.56,2.67,2.77,7.6
14.161962032318115,-6.93,4.23,2.14,8.39
14.16710090637207,-5.84,5.13,2.98,8.32
14.177055835723877,-3.27,4.3,0.92,5.47
14.18699598312378,-0.31,2.75,-2.06,3.44
14.197721004486084,2.85,1.81,-2.18,4.01
14.212422847747803,5.75,1.32,-0.96,5.97
14.217614889144897,6.56,0.93,-0.51,6.64
14.227684020996094,6.24,0.92,-0.43,6.32
14.237061977386475,4.31,1.13,-0.59,4.49
14.247853755950928,2.13,1.31,-0.02,2.5
14.261752843856812,0.65,1.47,0.89,1.83
14.2676420211792,-0.72,1.57,1.25,2.13
14.27725601196289,-1.71,1.56,2.28,3.24
14.287062883377075,-1.79,1.31,3.47,4.11
14.29726505279541,-0.82,0.9,4.13,4.3
14.312032699584961,0.51,0.57,4.18,4.24
14.31783676147461,1.66,0.47,3.54,3.93
14.327229022979736,2.54,0.45,2.1,3.32
14.337227821350098,2.9,0.23,0.48,2.94
14.347224712371826,2.53,-0.36,-0.44,2.59
14.362066745758057,1.7,-1.13,-0.68,2.15
14.367741823196411,0.67,-1.67,-0.54,1.87
14.377338886260986,-0.4,-1.66,-0.49,1.77
14.387171745300293,-1.28,-1.02,-0.41,1.68
14.398043870925903,-1.86,-0.34,-0.15,1.89
14.412240028381348,-2.24,-0.09,0.32,2.26
14.418059825897217,-2.27,-0.1,0.85,2.42
14.427511930465698,-1.62,0.07,0.98,1.89
14.437405824661255,-0.62,0.34,0.8,1.06
14.448060989379883,0.15,0.22,0.49,0.55
14.462800025939941,0.55,-0.37,0.31,0.73
14.468070030212402,0.66,-0.85,0.38,1.14
14.477269887924194,0.36,-0.91,0.67,1.18
14.487371921539307,-0.17,-0.65,0.78,1.02
14.498260974884033,-0.47,-0.47,0.81,1.04
14.51214599609375,-0.5,-0.19,0.9,1.04
14.517909049987793,-0.21,0.35,0.19,0.45
14.527390956878662,0.37,1.1,-0.6,1.3
14.537454843521118,0.86,1.88,-1.18,2.38
14.54814887046814,1.0,2.26,-1.45,2.86
14.562936782836914,0.6,1.91,-1.1,2.28
14.5676589012146,-0.08,0.84,-0.72,1.1
14.577445030212402,-0.66,-0.35,-0.66,0.99
14.587522983551025,-1.17,-1.18,-0.09,1.66
14.598273754119873,-1.29,-1.39,0.54,1.97
14.61230993270874,-0.8,-0.97,0.7,1.43
14.618361949920654,-0.29,-0.33,0.22,0.49
14.628255844116211,-0.06,-0.05,-0.61,0.61
14.637709856033325,0.22,0.08,-0.5,0.55
14.648177862167358,0.49,0.23,0.21,0.58
14.66349983215332,0.73,0.57,0.33,0.98
14.668303966522217,0.93,1.0,0.01,1.36
14.67868685722351,0.77,1.24,-0.41,1.51
14.687628746032715,0.26,1.26,-0.56,1.4
14.698355913162231,-0.09,0.9,-0.44,1.0
14.712756872177124,-0.23,0.29,-0.07,0.37
14.717948913574219,-0.47,-0.18,0.36,0.61
14.727718830108643,-0.73,-0.39,0.69,1.07
14.737812042236328,-0.8,-0.29,0.37,0.92
14.74848484992981,-0.64,0.15,-0.19,0.68
14.763650894165039,-0.29,0.7,-0.48,0.89
14.76823091506958,0.08,1.18,-0.52,1.29
14.779968738555908,0.25,1.47,-0.26,1.51
14.787785053253174,0.31,1.4,0.12,1.43
14.798470973968506,0.41,1.03,0.07,1.11
14.813355922698975,0.53,0.68,-0.26,0.9
14.818395853042603,0.85,0.41,-0.68,1.16
14.829439878463745,1.02,0.19,-0.81,1.31
14.837913036346436,0.73,-0.06,-0.19,0.75
14.848618984222412,0.23,-0.42,0.47,0.67
14.863704919815063,-0.12,-0.7,0.69,0.99
14.868620872497559,-0.25,-0.59,0.6,0.87
14.879772901535034,-0.28,-0.13,0.2,0.36
14.887784957885742,-0.15,0.57,-0.03,0.59
14.898666858673096,0.12,1.28,-0.28,1.31
14.912263870239258,0.51,1.75,-0.53,1.89
14.918795824050903,0.84,1.8,-0.69,2.1
14.928586959838867,0.96,1.37,-0.46,1.73
14.938066005706787,0.78,0.68,-0.29,1.07
14.947979927062988,0.48,0.05,-0.42,0.63
14.96233081817627,0.34,-0.18,-0.35,0.52
14.968708038330078,0.25,-0.08,-0.44,0.51
14.98110294342041,0.16,0.04,-0.57,0.59
14.987830877304077,0.23,0.06,-0.62,0.66
14.99814486503601,0.34,-0.15,-0.41,0.55
15.012475967407227,0.14,-0.56,0.47,0.74
15.018159866333008,-0.29,-1.1,0.72,1.34
15.02794599533081,-0.43,-1.45,0.24,1.53
15.038156986236572,-0.23,-1.39,-0.2,1.42
15.048106908798218,-0.04,-0.93,-0.82,1.24
15.062315940856934,0.16,-0.27,-1.52,1.55
15.068776845932007,0.3,0.34,-1.6,1.66
15.078707933425903,0.17,0.69,-1.25,1.43
15.088134765625,0.02,0.59,-0.77,0.97
15.098256826400757,-0.03,0.1,0.13,0.16
15.113358974456787,-0.12,-0.39,0.47,0.62
15.11845874786377,-0.18,-0.67,0.82,1.07
15.128384828567505,-0.01,-0.53,-0.04,0.53
15.138299942016602,0.39,0.04,-0.87,0.95
15.14883279800415,0.8,0.9,-0.72,1.4
15.163991928100586,0.83,1.98,-1.32,2.52
15.168890953063965,0.63,2.89,-0.81,3.06
15.180418014526367,0.39,3.42,-0.01,3.44
15.188230037689209,0.05,3.21,0.26,3.22
15.198928833007812,0.18,2.46,0.36,2.49
15.214287757873535,0.67,2.01,0.1,2.12
15.218658924102783,1.21,2.03,0.3,2.38
15.228339910507202,1.86,2.36,0.12,3.0
15.238456726074219,2.58,2.69,0.08,3.72
15.249046802520752,3.12,2.67,0.35,4.12
15.264022827148438,3.43,2.22,0.82,4.16
15.26883602142334,3.3,1.45,0.79,3.69
15.280351877212524,2.86,0.87,-0.02,2.98
15.288375854492188,2.17,0.37,-0.28,2.21
15.299130916595459,0.94,-0.14,-0.03,0.95
15.313864707946777,-1.02,-0.6,-0.33,1.22
15.319007873535156,-3.11,-0.67,-0.51,3.22
15.330148696899414,-4.8,-0.62,-0.43,4.85
15.338592052459717,-5.98,-0.79,-0.73,6.07
15.349149703979492,-5.94,-0.84,-1.13,6.1
15.363900899887085,-4.82,-0.6,-1.8,5.18
15.369579792022705,-2.47,-0.02,-2.49,3.5
15.379106044769287,0.46,0.51,-1.69,1.82
15.388404846191406,2.7,0.72,0.43,2.82
15.398823738098145,3.39,1.15,1.94,4.07
15.413808822631836,2.87,2.42,0.7,3.81
15.419503927230835,2.19,4.1,0.51,4.67
15.428887844085693,1.01,4.7,1.52,5.04
15.438771724700928,-0.84,4.4,1.58,4.74
15.448829889297485,-3.23,3.85,1.12,5.14
15.463852882385254,-5.44,3.65,1.09,6.64
15.468839883804321,-5.76,4.25,1.05,7.23
15.47882890701294,-3.69,5.02,0.44,6.24
15.488697052001953,-1.2,5.22,0.2,5.35
15.49892783164978,0.66,4.82,0.43,4.88
15.513365745544434,2.25,4.02,0.19,4.61
15.518779754638672,3.38,3.07,-0.82,4.63
15.528618812561035,4.32,2.28,-1.71,5.17
15.53884482383728,4.97,1.77,-1.79,5.57
15.548765897750854,4.77,1.42,-1.77,5.28
15.56429672241211,3.52,1.43,-2.09,4.33
15.568872928619385,1.95,1.88,-2.29,3.54
15.578579902648926,0.61,2.54,-2.64,3.71
15.588788986206055,-0.4,2.83,-2.77,3.98
15.598903894424438,-0.89,2.39,-1.63,3.02
15.614022731781006,-0.69,1.51,-0.29,1.68
15.619001865386963,-0.11,0.71,-0.38,0.81
15.628798961639404,0.69,0.46,-1.03,1.32
15.638954877853394,1.62,0.73,-1.65,2.42
15.648896932601929,2.32,1.22,-1.99,3.29
15.663794994354248,2.66,1.61,-2.07,3.73
15.66898488998413,2.41,1.67,-2.43,3.8
15.67877197265625,1.64,1.35,-2.79,3.5
15.68892788887024,0.86,0.91,-2.75,3.02
15.699034929275513,0.18,0.54,-2.09,2.16
15.713586807250977,-0.34,0.32,-1.29,1.37
15.719236850738525,-0.78,0.24,-1.08,1.35
15.729184865951538,-1.06,0.3,-1.56,1.9
15.73904275894165,-0.98,0.41,-2.36,2.58
15.749763011932373,-0.32,0.55,-2.78,2.85
15.764256000518799,0.42,0.43,-2.71,2.77
15.769446849822998,0.69,-0.02,-2.64,2.72
15.779370784759521,0.7,-0.63,-2.63,2.79
15.789069890975952,0.54,-1.23,-2.54,2.87
15.799779891967773,0.32,-1.7,-3.0,3.46
15.814908981323242,0.33,-1.96,-3.13,3.7
15.819685935974121,0.6,-2.24,-2.6,3.48
15.829846858978271,0.77,-2.61,-2.28,3.55
15.839210987091064,0.81,-3.11,-2.98,4.38
15.849137783050537,1.12,-3.33,-4.25,5.51
15.863684892654419,1.89,-3.29,-4.66,6.0
15.869667053222656,2.5,-3.55,-3.99,5.89
15.879294872283936,2.3,-4.28,-3.38,5.91
15.889145851135254,1.88,-4.91,-3.9,6.54
15.899365901947021,1.79,-5.17,-4.67,7.19
15.914177894592285,1.98,-5.52,-4.44,7.35
15.919410705566406,2.07,-5.86,-3.54,7.15
15.929219722747803,1.84,-6.11,-3.2,7.13
15.939304828643799,1.39,-6.25,-3.55,7.32
15.94923186302185,0.75,-6.14,-3.94,7.33
15.964062929153442,0.02,-5.88,-3.36,6.77
15.969738006591797,-0.68,-5.59,-1.72,5.88
15.979874849319458,-1.13,-5.25,-0.5,5.39
15.989299774169922,-0.92,-4.65,-0.19,4.74
15.998119831085205,-0.63,-4.29,0.23,4.34
16.012483835220337,-0.78,-4.15,0.84,4.3
16.018455028533936,-1.41,-4.15,1.39,4.59
16.02810788154602,-2.12,-3.8,1.4,4.57
16.038880825042725,-2.71,-3.07,1.48,4.35
16.04831075668335,-3.47,-2.14,1.78,4.44
16.063292980194092,-4.31,-1.01,1.96,4.84
16.068553924560547,-4.97,0.17,2.77,5.69
16.078240871429443,-5.74,0.92,4.13,7.13
16.0889630317688,-6.5,1.14,4.83,8.17
16.098366737365723,-7.29,1.54,6.02,9.57
16.11323595046997,-8.82,2.85,8.07,12.28
16.118440866470337,-11.17,6.03,9.97,16.14
16.128001928329468,-12.33,9.29,11.26,19.1
16.1400249004364,-8.81,12.01,9.49,17.66
16.14832592010498,-3.02,10.51,5.37,12.18
16.16251277923584,3.26,8.48,-0.66,9.1
16.16828489303589,6.13,6.43,-3.84,9.67
16.17808198928833,7.01,3.68,-4.1,8.91
16.189008712768555,6.92,1.02,-2.63,7.47
16.19848394393921,6.47,-1.63,-1.39,6.81
16.212584972381592,6.0,-4.3,-1.44,7.52
16.218605041503906,4.77,-6.09,-1.79,7.94
16.228126049041748,3.06,-6.6,-0.81,7.31
16.239165782928467,0.5,-5.63,0.5,5.67
16.24841594696045,-1.63,-3.41,1.36,4.01
16.262683868408203,-2.59,-1.13,1.95,3.43
16.268430709838867,-2.72,0.93,2.28,3.66
16.278554916381836,-2.43,2.86,1.58,4.07
16.289248943328857,-1.98,4.17,0.11,4.61
16.298807859420776,-1.49,4.42,-0.65,4.7
16.313901901245117,-0.82,2.92,-0.96,3.18
16.318646907806396,-0.14,0.87,-1.16,1.45
16.32823085784912,0.58,-0.66,-1.08,1.39
16.33929204940796,1.42,-1.6,-0.72,2.25
16.348536014556885,2.13,-1.88,0.01,2.84
16.367619037628174,2.17,-1.78,0.8,2.91
16.37395191192627,1.42,-1.52,1.02,2.31
16.382550716400146,0.35,-1.29,0.59,1.46
16.396504878997803,-0.59,-1.11,0.29,1.29
16.402400016784668,-1.31,-1.05,0.79,1.85
16.416905879974365,-1.84,-0.79,1.63,2.58
16.42391586303711,-2.09,-0.18,1.56,2.61
16.432695865631104,-1.99,0.66,0.7,2.21
16.44712781906128,-1.42,1.37,-0.48,2.03
16.452744007110596,-0.59,1.51,-0.79,1.8
16.467232704162598,-0.12,0.99,-0.07,0.99
16.474411010742188,-0.11,0.1,0.59,0.6
16.482812881469727,-0.17,-0.89,0.65,1.11
16.49758005142212,-0.18,-1.57,0.68,1.72
16.502691745758057,-0.05,-1.6,0.44,1.66
16.51764988899231,0.31,-0.59,-0.03,0.66
16.52405071258545,0.61,0.75,-0.4,1.04
16.53267478942871,0.72,1.68,-0.26,1.84
16.545830726623535,0.67,1.97,-0.42,2.12
16.552584886550903,0.46,1.54,-0.64,1.72
16.5670108795166,0.24,0.73,-0.64,1.0
16.57422685623169,-0.14,-0.12,-0.69,0.71
16.582770824432373,-0.67,-0.78,-0.23,1.05
16.597355842590332,-0.82,-1.14,-0.16,1.41
16.602702856063843,-0.64,-0.93,-0.35,1.18
16.616912841796875,-0.52,-0.19,-0.02,0.55
16.62437891960144,-0.36,0.49,0.31,0.68
16.633134841918945,-0.21,0.84,0.43,0.96
16.647369861602783,-0.07,0.74,0.49,0.89
16.652698040008545,0.07,0.16,0.35,0.39
16.666961908340454,0.2,-0.32,0.43,0.57
16.674715042114258,0.38,-0.4,0.36,0.65
16.682950019836426,0.34,-0.14,0.01,0.36
16.697561740875244,0.08,0.19,-0.25,0.32
16.70281171798706,-0.01,0.33,-0.56,0.65
16.718008995056152,0.04,0.35,-0.65,0.73
16.723585844039917,-0.11,0.36,-0.21,0.43
16.732845783233643,-0.51,0.25,-0.09,0.57
16.745990753173828,-0.96,0.05,-0.55,1.1
16.752843856811523,-0.98,-0.11,-0.78,1.25
16.767314910888672,-0.58,-0.17,-0.74,0.95
16.77344584465027,-0.11,-0.04,-0.08,0.14
16.78302788734436,0.2,0.09,0.92,0.94
16.795735836029053,0.32,0.12,1.01,1.06
16.802838802337646,0.32,0.06,0.56,0.64
16.816943883895874,0.31,0.03,0.38,0.49
16.82363271713257,0.36,0.04,-0.18,0.4
16.832940816879272,0.54,0.01,-1.35,1.45
16.845993995666504,0.64,0.0,-2.07,2.16
16.85296392440796,0.69,-0.08,-1.33,1.5
16.86726999282837,0.56,-0.22,-0.1,0.6
16.87493371963501,0.24,-0.32,0.17,0.43
16.883216857910156,-0.13,-0.19,-0.26,0.34
16.897873878479004,-0.48,0.1,-0.62,0.79
16.903124809265137,-0.55,0.38,-0.3,0.73
16.918182849884033,-0.4,0.62,0.57,0.93
16.924715995788574,-0.17,0.64,0.7,0.96
16.93315076828003,0.18,0.46,0.3,0.57
16.947715759277344,0.5,0.35,-0.23,0.65
16.953073024749756,0.77,0.14,-0.29,0.83
16.967796802520752,0.87,-0.09,0.09,0.87
16.97387170791626,0.65,-0.31,0.07,0.72
16.983203887939453,0.18,-0.44,-0.27,0.54
16.996304035186768,-0.18,-0.25,-0.95,0.99
17.003285884857178,-0.13,0.22,-0.84,0.87
17.017732858657837,-0.08,0.49,0.11,0.5
17.024608850479126,-0.11,0.34,0.78,0.85
17.03334379196167,0.05,-0.17,0.33,0.37
17.047459840774536,0.24,-0.35,-0.56,0.7
17.05320382118225,0.29,-0.14,-1.04,1.08
17.067559719085693,0.4,0.19,-1.12,1.2
17.074882984161377,0.5,0.44,-1.34,1.49
17.083412885665894,0.45,0.38,-1.19,1.32
17.09697985649109,0.31,0.16,-0.44,0.56
17.103319883346558,0.48,0.13,0.02,0.49
17.11841893196106,0.72,0.37,0.03,0.81
17.124075889587402,0.98,0.68,0.02,1.19
17.13335371017456,1.25,0.64,0.29,1.43
17.14653778076172,1.3,0.24,0.17,1.33
17.153360843658447,0.92,-0.2,-0.14,0.95
17.167709827423096,0.39,-0.27,-0.43,0.64
17.174071788787842,0.19,0.23,-1.06,1.1
17.183473825454712,0.13,1.05,-1.33,1.69
17.19657588005066,-0.06,1.76,-0.72,1.9
17.20344591140747,0.13,2.03,0.85,2.2
17.217490911483765,0.85,1.4,1.12,1.98
17.224166870117188,1.26,0.2,0.23,1.29
17.23346185684204,0.57,-0.57,0.74,1.09
17.24638795852661,-0.51,-0.69,1.16,1.44
17.253445863723755,-1.16,0.18,1.21,1.68
17.26764678955078,-1.29,1.56,1.0,2.25
17.27415895462036,-0.84,2.75,0.77,2.97
17.283601760864258,0.08,3.77,0.54,3.8
17.2963809967041,1.4,4.45,0.75,4.72
17.30357074737549,2.42,4.47,1.14,5.2
17.317485809326172,2.69,3.62,1.44,4.73
17.32428288459778,2.0,2.36,0.97,3.24
17.333573818206787,1.06,1.38,0.41,1.78
17.346800804138184,0.23,1.07,-0.06,1.09
17.353615760803223,-0.23,1.47,-0.97,1.77
17.367679834365845,-0.18,2.31,-0.81,2.45
17.374359846115112,0.35,3.31,-0.38,3.35
17.38377285003662,1.28,4.12,0.25,4.32
17.396777868270874,2.57,4.42,0.63,5.15
17.403754711151123,3.88,3.88,0.28,5.49
17.419320821762085,5.03,2.53,-0.55,5.65
17.4245548248291,6.0,1.15,0.06,6.1
17.433713912963867,6.13,-0.33,2.39,6.58
17.44687271118164,4.16,-1.41,0.97,4.49
17.453701972961426,-0.01,-1.34,-0.37,1.39
17.46804690361023,-4.2,-0.78,-0.62,4.31
17.474390029907227,-7.32,0.71,-0.46,7.36
17.48387098312378,-9.15,2.84,-0.44,9.59
17.497005939483643,-9.67,3.7,-1.13,10.41
17.50394082069397,-9.93,4.11,0.84,10.77
17.51787281036377,-8.0,4.09,0.76,9.01
17.525977849960327,-3.95,3.4,-0.48,5.23
17.533987998962402,-1.22,2.02,-0.94,2.54
17.54813003540039,0.43,0.99,-2.22,2.46
17.553887844085693,1.19,0.8,-2.77,3.11
17.567977905273438,1.49,1.08,-2.79,3.34
17.57568073272705,1.67,1.97,-2.2,3.39
17.584105014801025,1.76,3.3,-1.83,4.16
17.59879779815674,1.88,4.45,-1.94,5.2
17.603965759277344,2.1,4.82,-2.05,5.64
17.61946392059326,2.32,4.16,-2.03,5.17
17.624735832214355,2.45,2.89,-2.04,4.3
17.633988857269287,2.21,1.56,-1.94,3.32
17.64721393585205,1.72,0.47,-1.99,2.67
17.65398073196411,1.49,-0.23,-2.34,2.78
17.668259859085083,1.68,-0.64,-2.95,3.45
17.674712896347046,2.03,-0.85,-3.32,3.98
17.684813976287842,2.25,-0.91,-3.46,4.22
17.698218822479248,2.34,-0.98,-3.54,4.35
17.704148769378662,2.48,-1.18,-3.9,4.76
17.718324899673462,2.83,-1.51,-4.4,5.44
17.725838899612427,3.2,-1.95,-4.61,5.94
17.734550952911377,3.64,-2.48,-4.4,6.22
17.749030828475952,3.91,-3.12,-4.1,6.46
17.754137992858887,3.72,-3.76,-4.09,6.68
17.76829981803894,3.39,-4.17,-4.49,7.0
17.775787830352783,3.35,-4.36,-4.63,7.18
17.784503936767578,3.47,-4.37,-4.49,7.16
17.799376010894775,3.48,-4.25,-4.3,6.97
17.804290771484375,3.33,-4.1,-4.28,6.79
17.81965184211731,3.23,-4.0,-4.27,6.68
17.82491970062256,3.22,-3.95,-4.15,6.57
17.834213733673096,3.19,-3.89,-3.92,6.37
17.84804892539978,3.12,-3.84,-3.64,6.14
17.85422372817993,3.0,-3.77,-3.24,5.8
17.86901593208313,2.76,-3.72,-2.9,5.46
17.875834941864014,2.51,-3.66,-2.75,5.22
17.884716987609863,2.61,-3.5,-2.35,4.95
17.899934768676758,2.92,-3.26,-1.84,4.74
17.904501914978027,3.12,-2.98,-1.41,4.53
17.91882085800171,3.07,-2.63,-1.1,4.18
17.926455974578857,2.72,-2.27,-0.79,3.62
17.93464469909668,2.1,-1.88,-0.63,2.88
17.949715852737427,1.52,-1.36,-0.67,2.14
17.954460859298706,1.09,-0.79,-0.5,1.43
17.96919298171997,0.6,-0.24,-0.18,0.67
17.976078033447266,-0.13,0.28,-0.02,0.3
17.984750747680664,-1.05,0.75,-0.13,1.29
17.99882173538208,-1.91,1.26,-0.22,2.29
18.004539966583252,-2.67,1.94,0.01,3.3
18.01930284500122,-3.62,2.74,0.41,4.55
18.02637004852295,-4.89,3.47,1.07,6.09
18.03483486175537,-6.43,4.0,1.6,7.73
18.050775051116943,-7.73,4.23,1.65,8.96
18.054481029510498,-8.44,4.19,1.44,9.53
18.069591999053955,-8.29,3.79,1.27,9.2
18.07515573501587,-7.65,2.98,1.63,8.37
18.08465886116028,-7.03,1.96,1.79,7.51
18.098562717437744,-6.13,1.21,1.27,6.37
18.104614734649658,-4.71,0.94,1.3,4.97
18.118825912475586,-3.31,0.92,1.82,3.88
18.125234842300415,-2.31,1.0,2.03,3.23
18.13461685180664,-1.67,1.22,2.22,3.03
18.147907733917236,-1.33,1.48,2.47,3.17
18.15464687347412,-1.51,1.57,2.46,3.28
18.168642044067383,-2.18,1.51,2.0,3.32
18.176512718200684,-3.01,1.54,1.69,3.77
18.185247898101807,-4.09,1.79,1.63,4.75
18.199649810791016,-5.3,1.83,1.13,5.71
18.204784870147705,-6.05,1.38,-0.12,6.2
18.21990394592285,-5.36,0.68,-1.56,5.62
18.226161003112793,-3.29,0.32,-2.79,4.32
18.23515272140503,-0.86,0.42,-3.22,3.35
18.250298023223877,1.28,0.66,-2.48,2.86
18.25485587120056,3.27,1.04,-0.61,3.48
18.2695369720459,4.59,1.22,0.76,4.8
18.276532888412476,4.52,1.1,1.56,4.9
18.285397052764893,3.28,0.77,2.27,4.06
18.299527883529663,1.73,0.3,3.04,3.51
18.30501890182495,0.39,-0.26,3.39,3.42
18.319668769836426,-0.62,-0.71,3.1,3.24
18.32644486427307,-0.62,-0.81,2.18,2.4
18.335360050201416,-0.16,-0.73,0.64,0.98
18.350000858306885,-0.1,-0.57,-0.99,1.14
18.35494899749756,-0.53,-0.24,-2.36,2.43
18.369662761688232,-0.97,0.19,-2.71,2.88
18.376296043395996,-1.35,0.55,-1.92,2.41
18.385687828063965,-1.73,0.69,-0.77,2.01
18.40113878250122,-1.59,0.62,0.01,1.7
18.40511989593506,-0.74,0.4,0.29,0.88
18.419625759124756,0.19,0.18,0.32,0.41
18.426980018615723,0.9,-0.04,0.27,0.94
18.43521785736084,1.34,-0.13,0.2,1.36
18.45017671585083,1.43,-0.15,-0.14,1.44
18.455060958862305,1.36,-0.06,-0.65,1.5
18.46978783607483,1.0,0.06,-0.99,1.4
18.476655960083008,0.31,0.15,-0.88,0.94
18.485453844070435,-0.39,0.21,-0.38,0.58
18.499767780303955,-0.86,0.13,0.14,0.88
18.505220890045166,-1.07,0.04,0.47,1.16
18.519752979278564,-1.01,-0.01,0.6,1.17
18.527390956878662,-0.76,0.09,0.28,0.81
18.535594940185547,-0.15,0.24,-0.06,0.28
18.55022883415222,0.57,0.18,0.09,0.6
18.555144786834717,0.73,-0.09,0.19,0.75
18.569528818130493,0.49,-0.19,-0.15,0.54
18.575779914855957,0.16,-0.09,-0.32,0.36
18.585295915603638,-0.05,0.04,-0.24,0.24
18.599392890930176,-0.11,0.12,-0.17,0.23
18.605300903320312,-0.22,0.07,-0.13,0.26
18.619261741638184,-0.24,0.01,-0.16,0.28
18.62595796585083,-0.11,-0.02,-0.06,0.12
18.635130882263184,0.08,-0.02,-0.07,0.1
18.64946174621582,0.17,-0.01,-0.08,0.18
18.655231952667236,0.19,0.0,0.01,0.19
18.669291973114014,0.16,0.0,-0.04,0.16
18.675834894180298,0.15,-0.01,-0.15,0.21
18.68533492088318,0.14,-0.01,-0.02,0.14
18.698585987091064,0.09,-0.03,0.14,0.16
18.70547580718994,-0.03,0.0,-0.06,0.06
18.71946096420288,-0.06,0.06,-0.18,0.19
18.726114749908447,-0.1,0.12,-0.02,0.15
18.735389709472656,-0.14,0.11,0.08,0.19
18.748661041259766,-0.22,0.08,-0.07,0.24
18.755400896072388,-0.19,0.07,-0.05,0.2
18.76958179473877,0.01,0.08,0.06,0.1
18.776010036468506,0.23,0.03,0.01,0.23
18.785566806793213,0.28,-0.06,-0.03,0.28
18.799606800079346,0.18,-0.08,-0.03,0.19
18.805463790893555,-0.02,-0.04,-0.03,0.05
18.819520950317383,-0.15,0.01,0.03,0.15
18.826193809509277,-0.14,0.08,0.18,0.24
18.835511922836304,-0.09,0.1,0.09,0.16
18.849690914154053,-0.03,0.09,-0.08,0.12
18.85529899597168,0.07,0.09,-0.05,0.12
18.869740962982178,0.25,0.07,0.11,0.28
18.876210927963257,0.27,-0.04,0.2,0.33
18.88565683364868,0.08,-0.16,0.1,0.2
18.89964985847473,-0.16,-0.16,-0.01,0.22
18.905686855316162,-0.31,-0.05,0.02,0.31
18.920809745788574,-0.35,0.07,0.07,0.36
18.927144050598145,-0.36,0.14,-0.02,0.38
18.93583869934082,-0.33,0.17,-0.02,0.37
18.950896739959717,-0.28,0.12,0.03,0.3
18.955584049224854,-0.22,0.08,0.03,0.23
18.97036075592041,-0.16,0.01,-0.04,0.16
18.97741985321045,-0.14,0.01,-0.22,0.26
18.98654270172119,-0.11,0.07,-0.24,0.27
19.00221085548401,-0.09,0.12,-0.13,0.19
19.00591492652893,-0.11,0.14,-0.28,0.33
19.02060079574585,-0.07,0.13,-0.45,0.47
19.027595043182373,0.0,0.11,-0.38,0.39
19.03609585762024,0.03,0.08,-0.35,0.36
19.05317187309265,-0.01,0.03,-0.35,0.35
19.055895805358887,-0.04,0.0,-0.3,0.3
19.070313930511475,-0.06,0.01,-0.21,0.21
19.076204776763916,-0.02,0.01,-0.21,0.21
19.085834980010986,0.06,0.01,-0.24,0.24
19.101370811462402,0.1,0.04,-0.19,0.21
19.10580086708069,0.1,0.04,-0.07,0.12
19.120048999786377,0.06,0.0,-0.06,0.08
19.127761840820312,0.09,-0.03,-0.13,0.16
19.135984897613525,0.14,-0.01,-0.1,0.17
19.15008282661438,0.16,0.01,-0.08,0.17
19.155767917633057,0.13,0.03,-0.08,0.15
19.17143988609314,0.07,0.05,-0.02,0.08
19.176761865615845,-0.02,0.03,0.0,0.03
19.186142921447754,-0.08,0.02,0.01,0.08
19.200196743011475,-0.06,0.0,0.02,0.06
19.20609188079834,0.01,0.0,-0.01,0.01
19.220154762268066,0.05,0.07,-0.01,0.08
19.227929830551147,0.13,0.12,-0.01,0.17
19.23650598526001,0.3,0.14,-0.04,0.33
19.252084732055664,0.36,0.09,0.15,0.4
19.256032943725586,0.21,-0.01,0.31,0.37
19.270147800445557,0.04,-0.01,0.3,0.3
19.276633739471436,0.08,-0.03,0.22,0.23
19.286213874816895,0.23,-0.09,0.15,0.28
19.300343990325928,0.2,-0.12,0.01,0.23
19.30622386932373,-0.02,-0.11,-0.09,0.14
19.320206880569458,-0.18,-0.06,-0.02,0.19
19.326849937438965,-0.3,-0.05,0.2,0.36
19.336133003234863,-0.44,-0.16,0.55,0.72
19.35068702697754,-0.5,-0.31,0.64,0.86
19.356153964996338,-0.42,-0.37,0.5,0.75
19.371237754821777,-0.23,-0.26,0.3,0.45
19.37752103805542,0.0,-0.07,0.17,0.18
19.386826992034912,0.19,0.08,0.16,0.26
19.40042781829834,0.31,0.11,0.08,0.33
19.406405925750732,0.43,0.03,-0.04,0.43
19.42137098312378,0.49,0.01,-0.26,0.55
19.427047729492188,0.46,0.07,-0.38,0.6
19.43628191947937,0.32,0.13,-0.41,0.53
19.450074911117554,0.11,0.11,-0.31,0.34
19.45622682571411,-0.06,0.02,-0.14,0.15
19.470698833465576,-0.16,-0.04,-0.1,0.19
19.476950883865356,-0.1,-0.02,-0.12,0.15
19.487082958221436,-0.03,0.05,-0.06,0.08
19.50077986717224,0.08,0.08,0.01,0.11
19.506526947021484,0.15,0.01,0.0,0.15
19.52131700515747,0.24,-0.12,0.0,0.26
19.527105808258057,0.27,-0.23,0.02,0.35
19.5364408493042,0.22,-0.22,0.05,0.31
19.550513744354248,0.11,-0.14,0.09,0.19
19.556328773498535,-0.02,-0.06,0.18,0.19
19.570706844329834,-0.19,0.0,0.28,0.33
19.577008724212646,-0.32,0.01,0.33,0.45
19.586517810821533,-0.36,-0.03,0.28,0.45
19.602085828781128,-0.23,-0.06,0.13,0.27
19.606642723083496,-0.03,-0.05,0.02,0.06
19.6214337348938,0.15,-0.03,0.01,0.15
19.6280038356781,0.25,-0.01,0.05,0.25
19.63665199279785,0.24,-0.02,0.13,0.27
19.65134286880493,0.2,-0.09,0.15,0.26
19.65645170211792,0.16,-0.18,0.1,0.26
19.67156481742859,0.12,-0.17,0.02,0.2
19.677918910980225,0.13,-0.09,-0.02,0.15
19.68686294555664,0.17,0.03,-0.05,0.17
19.700992822647095,0.12,0.11,-0.03,0.16
19.706682920455933,0.06,0.08,0.04,0.1
19.721338748931885,-0.01,-0.07,0.07,0.09
19.727449893951416,-0.05,-0.2,0.06,0.21
19.736807823181152,-0.06,-0.24,0.01,0.24
19.750922918319702,-0.04,-0.15,-0.01,0.15
19.75651788711548,-0.04,0.01,-0.02,0.04
19.770997047424316,0.02,0.08,0.0,0.08
19.777305841445923,0.07,0.05,0.03,0.09
19.78679370880127,0.11,-0.04,0.02,0.11
19.80105185508728,0.16,-0.07,0.06,0.18
19.80689287185669,0.13,-0.02,0.05,0.14
19.821879863739014,0.1,0.03,0.09,0.13
19.827486038208008,0.04,0.03,0.18,0.18
19.836724758148193,0.04,-0.03,0.22,0.22
19.851115703582764,0.08,-0.01,0.18,0.19
19.856783866882324,0.13,0.04,0.12,0.18
19.870895862579346,0.15,0.08,0.08,0.18
19.878328800201416,0.13,0.06,0.07,0.15
19.887088775634766,0.09,0.02,0.1,0.13
19.901192903518677,0.0,-0.03,0.18,0.18
19.906946897506714,-0.09,-0.16,0.31,0.36
19.92179775238037,-0.17,-0.29,0.41,0.53
19.928602933883667,-0.2,-0.33,0.37,0.53
19.937078952789307,-0.17,-0.26,0.29,0.42
19.952058792114258,-0.11,-0.05,0.23,0.25
19.956894874572754,-0.04,0.1,0.14,0.17
19.971823930740356,0.0,0.15,0.0,0.15
19.977604866027832,0.0,0.02,-0.13,0.13
19.987486839294434,0.03,-0.23,-0.18,0.29
20.00013303756714,0.07,-0.39,-0.19,0.43
20.003301858901978,0.09,-0.37,-0.2,0.43
20.01736092567444,0.08,-0.14,-0.19,0.24
20.023132801055908,0.04,0.13,-0.19,0.23
20.033942699432373,0.05,0.29,-0.17,0.33
20.043336868286133,0.1,0.33,-0.14,0.37
20.053380966186523,0.18,0.22,-0.03,0.28
20.06852674484253,0.23,0.07,0.08,0.25
20.073451042175293,0.2,-0.05,0.13,0.24
20.084048748016357,0.14,-0.1,0.19,0.25
20.093331813812256,0.13,-0.07,0.17,0.22
20.10341501235962,0.12,0.02,0.13,0.17
20.118186950683594,0.16,0.07,0.06,0.18
20.123504877090454,0.18,0.09,0.01,0.2
20.134251832962036,0.13,0.06,0.02,0.14
20.143427848815918,0.02,0.01,0.04,0.04
20.15343475341797,-0.09,-0.09,0.03,0.13
20.168380737304688,-0.17,-0.14,0.04,0.22
20.17349886894226,-0.14,-0.1,0.01,0.17
20.183592796325684,-0.08,0.0,-0.03,0.08
20.193442821502686,0.02,0.08,-0.06,0.1
20.203483819961548,0.1,0.08,-0.02,0.12
20.217607975006104,0.14,0.06,0.07,0.16
20.223440885543823,0.11,0.01,0.07,0.13
20.23381781578064,0.12,-0.01,0.02,0.12
20.24358892440796,0.1,-0.02,0.01,0.1
20.25359082221985,0.11,0.02,0.03,0.11
20.26787781715393,0.08,0.04,0.05,0.1
20.27356195449829,0.03,0.02,0.04,0.05
20.284488916397095,0.01,-0.03,0.0,0.03
20.293555736541748,0.01,-0.04,-0.04,0.05
20.30386972427368,0.0,-0.02,-0.01,0.02
20.319060802459717,-0.01,0.01,0.03,0.03
20.32377004623413,0.01,0.05,0.02,0.05
20.33404779434204,-0.01,0.06,-0.01,0.06
20.34344482421875,-0.01,0.03,-0.02,0.03
20.354323863983154,0.02,0.0,-0.1,0.1
20.367921829223633,0.06,-0.04,-0.08,0.1
20.373733043670654,0.09,-0.05,-0.07,0.12
20.384657859802246,0.08,-0.02,-0.02,0.08
20.393693923950195,0.0,0.02,0.04,0.04
20.403764724731445,-0.05,0.02,0.08,0.09
20.417703866958618,-0.06,0.02,0.08,0.1
20.423873901367188,-0.03,0.03,0.04,0.05
20.43455171585083,0.01,0.04,0.01,0.04
20.443799018859863,0.04,0.05,0.0,0.06
20.453795909881592,0.03,0.0,0.03,0.04
20.469316959381104,-0.01,-0.02,0.04,0.04
20.47401189804077,-0.04,-0.03,-0.04,0.06
20.484241008758545,-0.07,-0.01,-0.1,0.12
20.494022846221924,-0.01,0.03,-0.09,0.09
20.504050731658936,0.03,0.04,-0.06,0.07
20.519446849822998,0.04,0.03,-0.04,0.06
20.524035930633545,0.03,-0.01,-0.06,0.06
20.534097909927368,0.03,-0.03,-0.08,0.09
20.54411792755127,0.06,0.0,-0.07,0.09
20.554178714752197,0.05,0.05,-0.03,0.07
20.568347930908203,-0.01,0.06,0.02,0.06
20.574105739593506,0.0,0.02,-0.04,0.04
20.58468985557556,0.0,0.0,-0.06,0.06
20.593682765960693,0.0,0.0,-0.06,0.06
20.604060888290405,0.03,0.0,-0.07,0.07
20.619587898254395,0.04,-0.01,-0.1,0.1
20.62420392036438,0.06,-0.02,-0.15,0.16
20.635491847991943,0.02,-0.03,-0.11,0.11
20.644073009490967,-0.01,-0.03,0.0,0.03
20.65412998199463,-0.06,-0.01,0.06,0.08
20.669291019439697,-0.05,0.06,0.06,0.09
20.67421579360962,-0.04,0.13,0.04,0.14
20.684988021850586,-0.03,0.17,0.04,0.17
20.693920850753784,-0.03,0.09,0.04,0.1
20.704269886016846,0.0,-0.05,-0.02,0.05
20.71949005126953,0.01,-0.12,-0.01,0.12
20.724361896514893,0.07,-0.07,0.05,0.11
20.73514175415039,0.1,0.0,0.01,0.1
20.74428701400757,0.08,0.05,-0.09,0.13
20.754202842712402,0.04,0.04,-0.08,0.09
20.76982593536377,0.0,0.04,-0.03,0.05
20.774245738983154,-0.04,0.01,0.0,0.04
20.785801887512207,-0.08,-0.01,0.02,0.08
20.794232845306396,-0.09,-0.02,0.01,0.09
20.804248809814453,-0.05,-0.02,0.0,0.05
20.819538831710815,0.0,-0.01,-0.02,0.02
20.82437801361084,0.04,0.0,0.0,0.04
20.835137844085693,0.04,0.01,-0.01,0.04
20.84441590309143,0.54,-0.16,-1.04,1.18
20.854331970214844,1.36,-0.4,1.44,2.02
20.869510889053345,0.86,0.1,-0.18,0.88
20.875013828277588,-0.16,0.43,-0.24,0.51
20.88583993911743,-1.04,0.45,0.59,1.27
20.894381046295166,-1.64,0.25,-0.29,1.68
20.904568910598755,-1.77,-0.23,-0.06,1.78
20.91863203048706,-1.02,-0.33,-0.18,1.08
20.924481868743896,0.01,-0.15,-0.12,0.19
20.93505883216858,0.62,-0.03,0.07,0.62
20.944293975830078,0.89,0.05,-0.02,0.89
20.954510927200317,0.9,0.08,0.0,0.9
20.970046997070312,0.78,0.08,0.03,0.78
20.974528789520264,0.53,0.02,0.05,0.53
20.98543381690979,0.23,-0.04,0.02,0.23
20.99451780319214,0.01,-0.09,-0.02,0.09
21.00460195541382,-0.2,-0.08,-0.07,0.22
21.018736839294434,-0.34,-0.01,-0.1,0.35
21.024590969085693,-0.39,0.08,-0.07,0.4
21.035327911376953,-0.32,0.1,-0.06,0.34
21.044639825820923,-0.15,0.08,-0.07,0.18
21.054564952850342,0.02,0.01,0.01,0.02
21.068822860717773,0.12,-0.04,0.08,0.14
21.076563835144043,0.15,-0.05,0.05,0.16
21.086641788482666,0.17,-0.04,0.02,0.17
21.094465732574463,0.17,0.01,0.05,0.17
21.10462999343872,0.13,0.03,0.05,0.14
21.12016987800598,0.04,0.01,0.02,0.04
21.124835968017578,-0.05,-0.02,0.0,0.05
21.135790824890137,-0.11,-0.02,0.01,0.11
21.144752025604248,-0.14,-0.01,-0.01,0.14
21.154679775238037,-0.12,0.0,-0.03,0.12
21.169861793518066,-0.01,0.02,-0.05,0.05
21.175150871276855,0.07,0.0,-0.01,0.07
21.186022758483887,0.11,0.01,-0.01,0.11
21.194609880447388,0.11,0.03,-0.05,0.12
21.20545983314514,0.14,0.07,-0.1,0.18
21.219840049743652,0.13,0.05,-0.16,0.21
21.225360870361328,0.09,0.02,-0.24,0.25
21.235774040222168,0.07,-0.01,-0.33,0.33
21.244845867156982,0.07,0.01,-0.21,0.22
21.255444049835205,0.11,0.0,0.12,0.16
21.270155906677246,0.08,-0.03,0.25,0.26
21.275020837783813,0.0,-0.05,0.21,0.21
21.285900831222534,0.02,-0.05,0.25,0.25
21.294739723205566,0.03,-0.04,0.25,0.25
21.304916858673096,0.03,-0.03,0.13,0.13
21.319270849227905,0.01,-0.04,0.06,0.07
21.324991703033447,-0.06,-0.06,0.04,0.09
21.335425853729248,-0.16,-0.04,0.09,0.18
21.344985008239746,-0.22,-0.01,0.1,0.24
21.35483694076538,-0.23,-0.01,0.06,0.23
21.369192838668823,-0.18,-0.01,0.04,0.18
21.37499690055847,-0.09,0.04,0.05,0.11
21.385741710662842,0.0,0.06,0.01,0.06
21.394941806793213,0.06,0.04,-0.08,0.1
21.40502691268921,0.12,0.04,-0.14,0.18
21.41914391517639,0.14,-0.01,-0.09,0.16
21.425117015838623,0.12,-0.06,-0.04,0.13
21.436776876449585,0.05,-0.08,0.0,0.09
21.445103883743286,0.06,-0.06,0.01,0.08
21.455059051513672,0.1,0.0,0.04,0.1
21.470184803009033,0.16,0.05,0.03,0.17
21.47539186477661,0.18,0.05,-0.02,0.18
21.486526012420654,0.13,-0.01,0.02,0.13
21.49506187438965,0.04,-0.05,0.12,0.13
21.505233764648438,-0.06,-0.07,0.14,0.16
21.520192861557007,-0.18,-0.02,0.16,0.24
21.52531385421753,-0.22,0.04,0.15,0.26
21.536456823349,-0.19,0.05,0.17,0.25
21.545352935791016,-0.11,-0.04,0.14,0.18
21.555210828781128,-0.07,-0.11,0.05,0.13
21.57037591934204,-0.01,-0.11,0.01,0.11
21.575395822525024,0.04,-0.04,0.01,0.05
21.58640480041504,0.05,0.04,0.03,0.07
21.59514570236206,0.05,0.06,0.01,0.07
21.605958938598633,0.06,0.02,0.01,0.06
21.620864868164062,0.04,-0.02,0.04,0.06
21.625669956207275,0.03,-0.05,0.05,0.07
21.636229038238525,0.03,-0.03,0.05,0.06
21.64543890953064,0.02,-0.01,0.03,0.03
21.65528678894043,0.02,0.02,-0.03,0.04
21.670605897903442,0.03,0.02,-0.05,0.06
21.675546884536743,0.04,0.03,-0.06,0.07
21.68655490875244,0.06,0.02,-0.06,0.08
21.69524884223938,0.05,0.0,-0.06,0.07
21.705500841140747,0.02,0.02,-0.09,0.09
21.720594882965088,0.0,0.02,-0.11,0.11
21.725544929504395,0.01,0.04,-0.14,0.14
21.73616600036621,0.02,0.04,-0.12,0.12
21.74547576904297,0.03,0.03,-0.11,0.11
21.755465030670166,0.04,0.0,-0.09,0.09
21.77074098587036,0.04,-0.01,-0.05,0.06
21.77540874481201,0.0,-0.01,-0.04,0.04
21.78631591796875,0.0,0.0,-0.03,0.03
21.79545283317566,-0.01,0.03,0.01,0.03
21.80550789833069,0.0,0.02,0.01,0.02
21.820539951324463,0.0,0.01,0.0,0.01
21.82547092437744,-0.01,0.0,0.0,0.01
21.836040019989014,-0.06,0.0,0.02,0.06
21.845629930496216,-0.09,0.02,0.04,0.1
21.855576992034912,-0.08,0.0,0.0,0.08
21.869969844818115,-0.06,-0.03,-0.02,0.06
21.875566005706787,-0.03,0.0,-0.03,0.04
21.886358737945557,0.01,0.01,-0.04,0.04
21.895548820495605,0.01,-0.01,-0.02,0.02
21.90561580657959,0.0,-0.01,-0.01,0.01
21.92119789123535,-0.01,0.01,-0.03,0.03
21.92581081390381,0.01,0.03,-0.09,0.09
21.936131954193115,0.01,0.06,0.01,0.06
21.94552183151245,0.05,0.06,0.01,0.07
21.955694913864136,0.03,0.01,-0.09,0.09
21.9698748588562,-0.02,-0.03,-0.12,0.12
21.975721836090088,0.0,-0.01,0.1,0.1
21.987790822982788,0.77,0.07,0.52,0.93
21.995868921279907,1.4,-0.02,-0.53,1.49
22.005882740020752,1.14,-0.08,0.2,1.16
22.0211238861084,-0.08,0.12,-0.41,0.43
22.02583599090576,-1.56,0.22,-0.41,1.62
22.036974906921387,-2.52,-0.02,0.02,2.52
22.045955896377563,-2.17,-0.55,0.18,2.24
22.055855751037598,-0.9,-0.17,-0.09,0.92
