time,ax,ay,az,atotal
0.004808902740478516,-0.23,0.35,-0.29,0.5
0.012769699096679688,-0.33,0.43,-0.39,0.66
0.026340961456298828,-0.07,0.18,-0.72,0.74
0.03428387641906738,0.17,-0.19,-1.23,1.25
0.0438847541809082,0.49,-0.45,-1.89,2.0
0.05385303497314453,0.44,-0.71,-2.04,2.2
0.06257295608520508,0.25,-0.88,-1.58,1.82
0.07575798034667969,0.22,-0.96,-1.21,1.56
0.08425784111022949,0.17,-1.08,-0.76,1.33
0.09405994415283203,0.21,-1.49,-0.43,1.56
0.1039128303527832,0.26,-1.71,-0.12,1.73
0.11264491081237793,0.27,-1.54,-0.05,1.56
0.1259148120880127,0.43,-1.11,-0.03,1.19
0.1342906951904297,0.6,-0.65,0.05,0.88
0.1439800262451172,0.91,-0.1,0.3,0.96
0.15409278869628906,1.36,0.39,0.26,1.43
0.16261887550354004,1.68,0.52,0.35,1.79
0.1758108139038086,2.69,0.02,0.36,2.71
0.18430685997009277,3.03,-0.62,0.42,3.12
0.1940770149230957,2.91,-1.48,0.28,3.27
0.20387601852416992,3.07,-1.98,0.13,3.65
0.21272993087768555,2.16,-2.61,0.24,3.39
0.22582292556762695,1.1,-2.6,0.46,2.86
0.23443078994750977,0.74,-1.79,-0.5,2.0
0.24418091773986816,-0.7,-1.08,-1.52,1.99
0.25417089462280273,-2.82,-0.36,-2.3,3.65
0.26279497146606445,-4.3,0.22,-2.99,5.24
0.2758469581604004,-4.14,0.0,-3.07,5.15
0.2844357490539551,-1.33,-2.31,-1.92,3.28
0.29412388801574707,1.21,-3.77,-1.15,4.12
0.3040437698364258,2.23,-2.13,-1.55,3.45
0.3127868175506592,1.66,-1.66,-0.96,2.53
0.32596778869628906,0.46,-2.9,-0.64,3.0
0.33435487747192383,0.36,-3.11,-0.38,3.15
0.3441047668457031,1.38,-2.79,0.37,3.13
0.35411977767944336,1.7,-3.1,0.3,3.54
0.36267590522766113,0.74,-3.35,-0.63,3.48
0.3756856918334961,0.45,-2.48,-0.89,2.67
0.38454294204711914,-0.98,-1.98,-1.08,2.45
0.3942117691040039,-0.82,-2.55,-1.51,3.07
0.40390777587890625,-0.34,-2.55,-1.65,3.05
0.4129948616027832,-0.75,-1.79,-1.6,2.51
0.42639780044555664,-1.22,-1.41,-1.66,2.49
0.4345128536224365,-1.2,-0.72,-1.53,2.07
0.4441237449645996,-1.73,0.13,-0.62,1.84
0.45424485206604004,-2.35,0.87,0.76,2.61
0.4628429412841797,-2.55,1.97,2.13,3.86
0.475848913192749,-2.53,2.84,2.87,4.76
0.48443603515625,-2.97,3.6,3.44,5.79
0.494081974029541,-3.25,4.26,4.03,6.7
0.5040907859802246,-3.23,4.9,4.35,7.3
0.5127568244934082,-3.23,5.41,4.52,7.75
0.5260376930236816,-3.49,6.02,4.56,8.31
0.5345458984375,-4.27,6.65,4.46,9.07
0.544130802154541,-4.98,7.29,4.38,9.85
0.5542318820953369,-5.27,7.68,4.63,10.4
0.5629010200500488,-5.55,8.18,4.89,11.02
0.5758438110351562,-5.35,9.23,5.58,12.03
0.5843508243560791,-4.9,10.5,6.27,13.17
0.5946009159088135,-4.15,11.54,6.33,13.8
0.6044619083404541,-3.26,12.24,6.0,14.01
0.613433837890625,-2.9,12.02,5.69,13.61
0.625910758972168,-2.83,11.13,5.23,12.61
0.634613037109375,-3.11,10.08,4.98,11.66
0.6441388130187988,-3.26,8.75,5.14,10.65
0.654329776763916,-2.42,7.69,5.46,9.73
0.6629500389099121,-1.11,6.91,5.56,8.93
0.6762409210205078,-0.42,5.8,4.93,7.62
0.6846528053283691,-0.28,4.67,3.86,6.06
0.694361686706543,0.2,3.94,2.9,4.89
0.7042217254638672,0.67,3.22,2.05,3.87
0.7130098342895508,1.42,2.46,1.23,3.09
0.7261078357696533,2.0,1.69,0.22,2.62
0.7346138954162598,2.09,0.61,-0.68,2.28
0.7442128658294678,2.26,-0.35,-1.32,2.64
0.7544469833374023,2.24,-1.39,-1.68,3.12
0.7628288269042969,2.48,-2.05,-1.68,3.62
0.7761538028717041,3.5,-2.4,-1.47,4.49
0.7847099304199219,3.73,-2.86,-1.23,4.85
0.7943477630615234,3.27,-3.64,-1.4,5.08
0.8043899536132812,3.29,-4.64,-1.69,5.93
0.8130688667297363,4.8,-4.91,-1.89,7.12
0.8261489868164062,5.52,-4.72,-1.69,7.45
0.8347058296203613,4.65,-5.27,-1.15,7.12
0.8442878723144531,4.58,-6.13,-0.93,7.7
0.854564905166626,5.65,-6.48,-0.82,8.63
0.8630578517913818,7.21,-5.98,-0.39,9.37
0.8762106895446777,8.33,-5.3,0.22,9.87
0.8848247528076172,8.14,-5.04,0.48,9.58
0.8944418430328369,7.89,-5.12,0.46,9.41
0.9044380187988281,7.22,-5.05,0.98,8.86
0.9131679534912109,7.13,-5.0,1.38,8.81
0.9261598587036133,7.86,-4.67,1.0,9.19
0.9346868991851807,7.9,-4.29,0.33,8.99
0.9443717002868652,7.56,-4.05,-0.41,8.58
0.954535961151123,7.49,-3.58,-1.15,8.38
0.9630599021911621,7.2,-3.17,-1.48,8.0
0.976099967956543,6.49,-3.3,-1.38,7.41
0.9847469329833984,6.09,-3.54,-1.31,7.16
0.9944639205932617,5.73,-3.62,-1.48,6.93
1.0045619010925293,5.7,-3.48,-1.72,6.89
1.0132017135620117,5.49,-3.3,-2.38,6.83
1.0270957946777344,4.87,-3.38,-2.91,6.6
1.0349879264831543,3.89,-3.63,-2.7,5.96
1.0444278717041016,3.27,-4.08,-2.42,5.76
1.054628849029541,2.93,-4.54,-2.05,5.77
1.0632948875427246,2.49,-4.9,-1.4,5.67
1.076244831085205,2.33,-5.34,-0.75,5.87
1.0849988460540771,2.51,-5.71,0.05,6.23
1.0946128368377686,2.79,-5.76,0.56,6.42
1.104485034942627,2.66,-5.34,0.37,5.97
1.113265037536621,2.88,-4.77,-0.67,5.61
1.1264128684997559,3.36,-3.79,-2.04,5.46
1.1348977088928223,3.87,-3.58,-1.12,5.38
1.1445348262786865,4.42,-4.44,-0.27,6.27
1.1547648906707764,4.98,-4.68,-0.9,6.89
1.163193702697754,5.04,-4.19,-0.42,6.56
1.176325798034668,5.48,-3.39,-0.39,6.45
1.1848549842834473,5.34,-2.1,-0.7,5.78
1.1945018768310547,5.14,-1.16,-1.13,5.38
1.2045958042144775,5.88,-0.91,-1.56,6.15
1.213329792022705,5.63,-1.13,-1.3,5.88
1.226536750793457,5.59,-1.1,-1.8,5.97
1.2350938320159912,6.11,-0.44,-2.32,6.55
1.2446398735046387,6.02,0.44,-2.64,6.58
1.254800796508789,5.65,1.29,-2.51,6.31
1.2633190155029297,5.48,2.09,-1.81,6.13
1.2763118743896484,5.67,2.77,-1.12,6.4
1.2849578857421875,5.35,3.46,-1.02,6.45
1.2945857048034668,4.8,3.95,-0.7,6.25
1.3046116828918457,4.01,4.22,-0.91,5.89
1.3134138584136963,3.35,4.07,-0.44,5.28
1.3267168998718262,2.64,4.05,-0.54,4.86
1.335035800933838,2.35,4.24,-0.24,4.85
1.344653844833374,1.41,4.73,-0.37,4.94
1.3546247482299805,0.99,4.77,-0.27,4.87
1.363286018371582,0.19,4.82,-0.1,4.82
1.3763117790222168,-0.42,5.24,0.37,5.26
1.3849387168884277,-0.15,5.06,2.31,5.56
1.3945817947387695,-0.57,4.33,3.7,5.72
1.4046998023986816,-0.95,4.24,3.63,5.66
1.413388729095459,-0.66,4.28,4.08,5.94
1.4263629913330078,-1.04,4.77,4.13,6.39
1.4349439144134521,-1.73,5.07,3.45,6.37
1.4447007179260254,-2.57,5.38,3.0,6.67
1.4547557830810547,-3.2,6.09,2.33,7.26
1.463284969329834,-3.66,6.23,1.83,7.45
1.4764189720153809,-4.16,6.08,2.06,7.64
1.4848947525024414,-4.24,5.93,2.56,7.72
1.494743824005127,-4.01,5.81,3.2,7.75
1.5045688152313232,-4.39,6.7,4.37,9.12
1.5134119987487793,-3.76,7.38,5.61,10.0
1.5265789031982422,-3.73,7.93,6.04,10.64
1.5350608825683594,-4.67,8.64,6.55,11.8
1.5447397232055664,-4.54,8.88,5.72,11.49
1.5548419952392578,-5.13,9.43,4.78,11.75
1.5633668899536133,-4.74,9.39,4.55,11.46
1.5763428211212158,-4.94,8.99,4.65,11.26
1.585216999053955,-5.15,8.68,4.36,10.99
1.5947647094726562,-4.67,8.69,4.32,10.76
1.6046500205993652,-3.25,8.3,4.45,9.96
1.6134698390960693,-4.6,9.05,4.14,10.96
1.6266028881072998,-4.46,9.69,3.75,11.3
1.6351118087768555,-3.7,9.42,3.27,10.63
1.644709825515747,-4.23,9.34,2.93,10.66
1.6547999382019043,-3.75,8.69,3.32,10.03
1.6634159088134766,-3.7,7.47,3.52,9.04
1.6764938831329346,-3.46,7.15,3.43,8.65
1.685163974761963,-3.16,7.35,3.13,8.59
1.694756031036377,-2.89,7.67,2.33,8.52
1.7046208381652832,-2.45,8.59,1.54,9.06
1.7134637832641602,-1.57,9.23,1.19,9.43
1.7266907691955566,-0.94,9.19,0.41,9.24
1.7349867820739746,-0.26,9.19,0.21,9.19
1.7448649406433105,0.49,9.31,0.39,9.33
1.7550268173217773,1.2,8.75,-0.02,8.83
1.7637178897857666,0.9,7.86,-0.52,7.92
1.77675199508667,1.52,7.18,-0.69,7.37
1.785188913345337,1.82,6.52,-1.14,6.86
1.7948648929595947,2.23,5.62,-1.5,6.22
1.8047888278961182,3.18,4.81,-2.08,6.12
1.813598871231079,3.59,3.73,-1.98,5.54
1.826718807220459,3.68,2.78,-2.35,5.17
1.8352508544921875,4.55,1.62,-1.82,5.16
1.844888687133789,4.95,0.26,-1.04,5.06
1.8549869060516357,5.37,-1.0,-0.56,5.49
1.863447904586792,6.27,-1.31,-0.56,6.42
1.8766188621520996,7.1,-1.36,-1.18,7.32
1.8853707313537598,6.96,-1.51,-1.97,7.38
1.8949499130249023,6.89,-1.72,-1.87,7.34
1.904944896697998,7.16,-2.71,-1.33,7.77
1.9136137962341309,7.02,-2.95,-1.13,7.69
1.9265937805175781,8.23,-3.99,-0.55,9.16
1.9352149963378906,6.96,-4.76,-0.49,8.44
1.9450287818908691,8.08,-5.49,-0.93,9.81
1.9550578594207764,9.18,-5.45,-1.74,10.81
1.9636259078979492,7.9,-4.44,-2.27,9.34
1.976909875869751,7.74,-3.47,-1.74,8.65
1.9853129386901855,8.2,-3.06,-1.7,8.91
1.9950168132781982,8.19,-2.85,-2.27,8.96
2.004978895187378,8.54,-2.84,-2.24,9.27
2.013753890991211,8.38,-3.28,-1.8,9.17
2.0268807411193848,7.72,-4.03,-1.43,8.82
2.035400867462158,7.79,-4.36,-1.69,9.08
2.045012950897217,8.06,-3.95,-2.07,9.21
2.0550827980041504,7.95,-3.9,-2.05,9.08
2.063661813735962,7.79,-4.05,-2.42,9.1
2.0766167640686035,7.4,-4.04,-2.88,8.9
2.085383892059326,7.25,-3.83,-3.12,8.77
2.0950708389282227,7.2,-3.59,-3.09,8.61
2.1051039695739746,7.05,-3.35,-3.29,8.47
2.113799810409546,6.85,-3.37,-3.46,8.38
2.1267290115356445,6.81,-3.62,-3.58,8.5
2.135248899459839,6.84,-3.73,-3.58,8.57
2.1448187828063965,6.65,-3.73,-3.43,8.36
2.154874801635742,6.56,-3.73,-3.33,8.24
2.1636829376220703,6.57,-3.55,-3.19,8.12
2.1769158840179443,6.58,-3.42,-2.81,7.93
2.1853318214416504,6.78,-3.53,-2.36,7.99
2.1950860023498535,6.65,-3.35,-2.04,7.72
2.204998016357422,6.57,-3.0,-2.08,7.51
2.213747978210449,6.42,-2.86,-2.11,7.33
2.2268898487091064,6.15,-2.85,-2.24,7.13
2.2354087829589844,5.93,-2.58,-2.17,6.82
2.245123863220215,5.63,-2.32,-1.98,6.4
2.255199909210205,5.54,-2.18,-2.12,6.31
2.263835906982422,5.52,-1.81,-2.16,6.19
2.277066707611084,5.2,-1.34,-2.15,5.78
2.2855067253112793,4.98,-1.1,-2.32,5.6
2.2951698303222656,4.97,-0.82,-1.95,5.4
2.3051109313964844,4.47,-0.56,-1.8,4.85
2.317560911178589,4.32,-0.13,-1.85,4.7
2.327056884765625,4.16,0.38,-1.43,4.41
2.3353588581085205,4.03,0.92,-1.08,4.27
2.345223903656006,3.63,1.49,-0.87,4.01
2.355292797088623,3.17,1.83,-0.99,3.79
2.3638808727264404,2.67,2.48,-1.18,3.83
2.3769898414611816,2.42,3.26,-1.12,4.21
2.3854448795318604,2.14,3.78,-0.61,4.38
2.395195960998535,1.65,3.98,-0.29,4.31
2.4052987098693848,1.21,4.42,-0.2,4.58
2.413969039916992,0.69,4.89,0.0,4.93
2.4269399642944336,0.18,5.31,0.12,5.31
2.4354567527770996,-0.47,5.55,0.08,5.57
2.445427894592285,-0.86,5.83,-0.17,5.89
2.455404758453369,-1.15,6.46,0.23,6.56
2.463988780975342,-1.61,6.48,0.57,6.7
2.4771900177001953,-1.93,6.49,0.83,6.82
2.4855847358703613,-2.42,6.46,1.49,7.05
2.495417833328247,-2.79,6.47,1.81,7.27
2.5053298473358154,-3.16,6.69,1.92,7.64
2.5141148567199707,-3.61,7.34,2.04,8.43
2.527219772338867,-4.07,7.58,2.07,8.84
2.5355658531188965,-4.72,7.68,2.11,9.25
2.5453808307647705,-5.41,7.69,2.68,9.77
2.5554347038269043,-6.07,7.67,3.16,10.27
2.563959836959839,-6.73,7.48,3.37,10.61
2.576953887939453,-6.74,8.08,3.14,10.98
2.585594892501831,-7.14,8.35,3.82,11.63
2.5953028202056885,-7.34,8.55,3.61,11.83
2.60530686378479,-7.57,8.83,3.91,12.27
2.614203929901123,-7.52,9.17,4.48,12.67
2.6271908283233643,-7.3,9.64,4.48,12.89
2.6355838775634766,-7.03,10.11,4.64,13.15
2.6454739570617676,-6.54,10.48,4.96,13.31
2.655759811401367,-6.31,10.45,5.21,13.27
2.66426682472229,-6.22,10.36,5.09,13.11
2.6772937774658203,-6.27,10.39,4.86,13.07
2.6854538917541504,-6.07,10.42,4.34,12.81
2.6956048011779785,-5.88,10.54,3.82,12.65
2.705469846725464,-5.86,10.81,3.4,12.75
2.7141079902648926,-5.65,11.02,3.1,12.76
2.727165699005127,-5.09,11.29,2.36,12.6
2.7354307174682617,-4.63,11.27,2.11,12.36
2.7456648349761963,-4.19,11.39,1.88,12.28
2.756018877029419,-3.55,11.49,1.38,12.1
2.7644200325012207,-2.99,11.37,0.84,11.78
2.7771568298339844,-2.27,11.08,0.3,11.31
2.7854089736938477,-1.62,10.46,-0.3,10.58
2.795590877532959,-0.99,9.67,-0.6,9.73
2.8054728507995605,-0.84,8.15,-0.63,8.21
2.8142588138580322,0.56,7.84,-1.37,7.97
2.82714581489563,1.29,7.55,-0.96,7.71
2.835476875305176,2.46,6.8,-1.45,7.37
2.8455018997192383,3.44,5.33,-2.07,6.67
2.8555479049682617,4.31,4.26,-2.42,6.52
2.8640658855438232,4.87,3.22,-2.12,6.21
2.87709379196167,5.58,1.72,-2.12,6.21
2.8856029510498047,6.37,0.69,-2.21,6.77
2.895573854446411,6.73,-0.35,-1.58,6.92
2.905458927154541,6.93,-1.41,-1.25,7.18
2.9143667221069336,7.02,-2.21,-1.34,7.48
2.927274703979492,7.04,-2.89,-1.36,7.73
2.9357237815856934,7.03,-3.72,-1.54,8.1
2.9454708099365234,7.45,-4.28,-2.69,9.0
2.955702781677246,7.78,-4.33,-3.17,9.45
2.9642858505249023,7.65,-3.93,-2.62,8.99
2.977451801300049,7.99,-4.01,-2.24,9.21
2.985567808151245,8.51,-4.42,-1.98,9.79
2.995675802230835,8.48,-4.84,-1.74,9.91
3.0055646896362305,8.37,-5.37,-1.8,10.1
3.014420986175537,8.21,-5.76,-1.76,10.18
3.027379035949707,7.95,-5.82,-1.67,9.99
3.035824775695801,7.97,-5.57,-1.65,9.86
3.046010971069336,8.0,-5.22,-1.6,9.68
3.055696964263916,8.2,-4.75,-1.69,9.62
3.064314842224121,8.4,-4.34,-1.52,9.57
3.0773067474365234,8.29,-4.31,-1.68,9.49
3.0855019092559814,8.27,-4.34,-1.71,9.49
3.095728874206543,8.05,-4.35,-1.55,9.28
3.105564832687378,7.8,-4.19,-1.5,8.98
3.1141788959503174,7.45,-4.19,-1.46,8.67
3.1274046897888184,7.41,-4.15,-1.47,8.61
3.1355929374694824,7.45,-3.93,-1.19,8.5
3.1456499099731445,7.39,-3.73,-1.05,8.34
3.155712842941284,7.35,-3.65,-1.17,8.28
3.1643598079681396,7.32,-3.54,-1.25,8.22
3.177546977996826,7.12,-3.38,-1.34,7.99
3.1859607696533203,6.92,-3.25,-1.45,7.78
3.1958038806915283,6.72,-3.06,-1.3,7.49
3.20564603805542,6.48,-2.94,-1.16,7.2
3.2169127464294434,6.39,-3.01,-1.38,7.19
3.2273969650268555,6.09,-3.11,-1.51,7.0
3.2356088161468506,5.8,-3.11,-1.48,6.74
3.245748996734619,5.6,-3.03,-1.41,6.52
3.255828857421875,5.49,-3.04,-1.45,6.44
3.267037868499756,5.6,-2.79,-1.61,6.46
3.277573823928833,5.63,-2.03,-1.68,6.21
3.2858328819274902,5.54,-1.38,-1.92,6.02
3.2959017753601074,5.17,-1.58,-2.18,5.82
3.305682897567749,4.89,-1.91,-2.49,5.81
3.3173108100891113,4.49,-1.94,-2.42,5.45
3.3275198936462402,4.19,-2.12,-2.14,5.16
3.335925817489624,4.05,-2.17,-1.87,4.96
3.3458468914031982,3.92,-1.93,-1.8,4.72
3.3558738231658936,3.6,-1.8,-1.59,4.32
3.367243766784668,3.46,-1.76,-1.82,4.28
3.3776350021362305,3.19,-1.66,-1.96,4.09
3.3859808444976807,2.86,-1.43,-1.57,3.56
3.3959460258483887,2.56,-0.99,-1.52,3.13
3.4058237075805664,2.21,-0.95,-1.78,2.99
3.4173338413238525,2.18,-0.91,-1.71,2.91
3.4276657104492188,2.29,-0.33,-1.08,2.55
3.4359679222106934,2.5,0.23,-0.62,2.58
3.445927858352661,2.58,0.68,-0.46,2.7
3.4560070037841797,2.32,0.79,-0.23,2.46
3.467494010925293,2.27,0.96,-0.14,2.46
3.4778189659118652,2.13,1.19,0.08,2.44
3.4860498905181885,2.07,1.33,0.27,2.47
3.4959828853607178,1.85,1.7,0.38,2.54
3.5059027671813965,1.56,2.34,-0.01,2.81
3.5172629356384277,1.26,3.22,-0.58,3.5
3.527758836746216,0.74,3.78,-0.92,3.96
3.5360498428344727,0.32,4.1,-1.07,4.24
3.5458498001098633,0.16,4.5,-1.07,4.62
3.5560948848724365,0.12,5.02,-0.6,5.05
3.56745982170105,0.05,5.35,-0.18,5.35
3.5775527954101562,-0.16,5.43,0.09,5.43
3.5860488414764404,-0.24,5.7,0.37,5.71
3.595946788787842,-0.46,5.86,0.98,5.95
3.605909824371338,-0.77,5.72,1.54,5.97
3.617421865463257,-1.16,5.69,1.72,6.05
3.627624988555908,-1.52,5.76,1.81,6.22
3.636131763458252,-1.99,5.84,1.9,6.45
3.6458640098571777,-2.54,5.97,1.85,6.74
3.6559977531433105,-2.99,6.13,1.88,7.07
3.6673879623413086,-3.2,6.2,2.2,7.31
3.6776037216186523,-3.41,6.46,2.67,7.77
3.6861419677734375,-3.69,6.7,3.11,8.25
3.696049690246582,-4.01,6.71,3.49,8.56
3.7059648036956787,-4.3,6.81,3.7,8.86
3.717585802078247,-4.72,6.78,3.73,9.06
3.727754831314087,-4.97,6.85,3.78,9.26
3.7361369132995605,-5.1,7.18,3.89,9.62
3.745990753173828,-5.16,7.37,3.96,9.82
3.756112813949585,-5.32,7.49,3.81,9.94
3.7676398754119873,-5.56,7.53,3.69,10.06
3.777833938598633,-5.35,7.73,3.84,10.15
3.786102771759033,-4.88,8.11,4.37,10.42
3.7960410118103027,-4.78,8.25,4.66,10.61
3.805947780609131,-4.78,8.42,4.39,10.63
3.817539691925049,-4.84,8.62,3.62,10.52
3.8278088569641113,-4.77,8.79,2.82,10.39
3.836282730102539,-4.66,8.93,2.47,10.37
3.8460206985473633,-4.41,8.86,2.6,10.23
3.8560619354248047,-4.16,8.67,2.63,9.96
3.8674728870391846,-3.98,8.45,2.45,9.65
3.877713918685913,-3.78,8.43,2.21,9.49
3.8860907554626465,-3.58,8.34,1.75,9.24
3.8960509300231934,-3.15,8.38,1.26,9.04
3.9059886932373047,-2.98,8.26,1.36,8.88
3.917695999145508,-2.78,7.98,1.18,8.53
3.927677869796753,-2.44,7.55,0.84,7.97
3.936166763305664,-2.15,7.11,0.82,7.47
3.9459877014160156,-1.69,6.87,0.87,7.12
3.956192970275879,-1.11,6.71,1.01,6.87
3.967540740966797,-0.64,6.31,1.16,6.44
3.9777588844299316,-0.16,5.81,1.05,5.9
3.986217975616455,0.26,5.64,0.87,5.71
3.996140956878662,0.23,5.36,0.6,5.39
4.006074905395508,0.66,5.19,-0.21,5.23
4.017945766448975,0.94,5.15,-0.52,5.26
4.028038024902344,1.13,4.51,-0.62,4.69
4.0362818241119385,1.63,3.85,-0.81,4.25
4.046262741088867,2.14,3.36,-0.71,4.04
4.0564048290252686,2.59,2.83,-0.53,3.87
4.067784786224365,3.32,2.45,-0.54,4.16
4.077838897705078,3.67,2.06,-0.55,4.24
4.086222887039185,3.91,1.57,-0.38,4.23
4.096181869506836,4.04,1.15,-0.49,4.22
4.106147766113281,4.39,0.85,-1.14,4.61
4.1176438331604,4.7,0.42,-1.51,4.95
4.12788987159729,4.77,0.03,-1.61,5.03
4.136200904846191,5.24,-0.56,-2.02,5.64
4.146193027496338,5.76,-1.02,-2.31,6.28
4.156245708465576,6.07,-1.1,-2.14,6.52
4.167823791503906,6.14,-1.57,-1.43,6.49
4.1781229972839355,6.64,-1.87,-1.41,7.04
4.186413764953613,6.92,-2.01,-1.26,7.31
4.196228981018066,6.96,-2.32,-1.05,7.41
4.206140995025635,7.22,-2.7,-0.82,7.75
4.217727899551392,7.3,-2.83,-0.69,7.85
4.228224754333496,7.37,-2.82,-0.72,7.92
4.236166000366211,7.37,-3.09,-0.67,8.01
4.24608588218689,7.28,-3.51,-0.67,8.1
4.256663799285889,7.35,-3.87,-0.93,8.35
4.268035888671875,7.31,-3.91,-1.23,8.38
4.278142929077148,7.25,-3.94,-1.4,8.36
4.286386013031006,7.42,-4.06,-1.29,8.55
4.2963948249816895,7.59,-3.98,-0.8,8.6
4.306305885314941,7.53,-4.17,-0.41,8.61
4.318034887313843,7.56,-4.39,-0.88,8.78
4.328248977661133,7.53,-4.29,-1.33,8.76
4.336225986480713,7.38,-4.29,-1.38,8.64
4.3462958335876465,7.53,-4.35,-1.6,8.84
4.356298923492432,7.56,-4.18,-1.55,8.77
4.367831707000732,7.49,-3.97,-1.44,8.59
4.378054857254028,7.41,-4.0,-1.56,8.56
4.386474847793579,7.26,-4.12,-1.99,8.58
4.396553039550781,7.09,-4.08,-2.11,8.44
4.406421899795532,6.9,-4.03,-2.02,8.24
4.4181969165802,6.63,-4.05,-2.0,8.02
4.428589820861816,6.43,-3.97,-2.05,7.82
4.43638277053833,6.39,-3.74,-1.92,7.64
4.446418762207031,6.22,-3.42,-1.75,7.31
4.456464767456055,6.04,-3.35,-1.81,7.14
4.4679179191589355,5.95,-3.26,-1.91,7.04
4.478107929229736,5.88,-3.01,-1.68,6.81
4.486579895019531,5.79,-2.75,-1.43,6.56
4.496575832366943,5.81,-2.43,-1.14,6.4
4.506557941436768,5.68,-2.16,-1.01,6.16
4.518036842346191,5.45,-2.0,-1.21,5.93
4.528172016143799,5.32,-1.64,-1.42,5.74
4.536466836929321,5.11,-1.2,-1.41,5.43
4.546430826187134,4.83,-0.88,-1.35,5.09
4.556581020355225,4.49,-0.82,-1.6,4.83
4.568087816238403,4.24,-0.79,-1.75,4.65
4.578197956085205,3.95,-0.52,-1.47,4.24
4.5865068435668945,3.81,-0.41,-1.26,4.03
4.596302032470703,3.7,-0.38,-1.26,3.92
4.606356859207153,3.68,-0.15,-1.13,3.85
4.618276834487915,3.64,0.24,-0.67,3.7
4.628209829330444,3.58,0.81,-0.51,3.7
4.636654853820801,3.36,1.15,-0.37,3.57
4.646461009979248,3.2,1.41,-0.41,3.52
4.656543731689453,2.96,1.65,-0.71,3.46
4.6680707931518555,2.49,2.16,-0.86,3.4
4.678285837173462,2.2,2.69,-0.68,3.54
4.686584949493408,1.88,2.8,-0.91,3.49
4.696534872055054,1.58,3.08,-1.16,3.65
4.70650577545166,1.04,3.29,-1.04,3.6
4.718510866165161,0.48,3.41,-1.15,3.63
4.72840690612793,-0.02,3.72,-1.02,3.85
4.736691951751709,-0.36,4.06,-0.73,4.14
4.7469987869262695,-0.75,4.43,-0.63,4.53
4.756633758544922,-1.38,4.59,-0.43,4.81
4.768348693847656,-1.27,5.23,-1.14,5.5
4.778224945068359,-1.68,5.26,-0.46,5.54
4.786670684814453,-1.88,5.29,-0.27,5.62
4.797078847885132,-2.23,5.11,0.43,5.59
4.806646823883057,-2.52,4.99,1.17,5.71
4.818670749664307,-2.74,5.04,1.71,5.98
4.828600883483887,-3.31,5.03,1.97,6.33
4.836721897125244,-3.74,5.05,1.83,6.54
4.847052812576294,-4.0,5.17,1.95,6.82
4.856712818145752,-4.26,5.23,1.98,7.03
4.868229866027832,-4.56,5.41,1.96,7.34
4.878341913223267,-4.78,5.46,1.95,7.51
4.886674880981445,-5.08,5.25,2.04,7.58
4.896905899047852,-5.07,5.14,2.31,7.58
4.906642913818359,-5.1,5.1,2.94,7.78
4.9182820320129395,-5.03,4.93,3.51,7.86
4.928464889526367,-5.02,4.92,3.76,7.97
4.936692714691162,-5.0,5.14,3.93,8.17
4.946451902389526,-5.0,5.44,4.09,8.44
4.956694841384888,-5.03,5.64,4.33,8.7
4.968098878860474,-5.06,5.92,4.59,9.03
4.9784369468688965,-5.23,6.08,4.7,9.29
4.986701965332031,-5.33,6.29,4.5,9.39
4.997013807296753,-5.41,6.68,4.12,9.53
5.006659984588623,-5.56,6.99,4.01,9.79
5.018121719360352,-5.67,7.01,3.71,9.74
5.028473854064941,-5.73,7.07,3.55,9.76
5.036770820617676,-5.85,7.08,3.66,9.88
5.047054767608643,-6.05,7.14,3.72,10.07
5.056947708129883,-6.09,7.23,3.24,9.99
5.067955017089844,-6.09,7.43,2.8,10.0
5.078405857086182,-5.92,7.54,2.62,9.93
5.086512804031372,-5.92,7.45,2.72,9.89
5.097035884857178,-5.61,7.83,1.9,9.81
5.106736898422241,-5.03,8.52,1.59,10.02
5.118336915969849,-4.86,8.57,1.24,9.92
5.128564834594727,-4.77,8.52,0.41,9.77
5.136826038360596,-4.61,8.38,0.13,9.56
5.147101879119873,-4.27,8.18,0.02,9.22
5.156765937805176,-3.68,7.97,0.21,8.78
5.168388843536377,-2.81,7.91,0.52,8.41
5.17852783203125,-1.95,7.7,0.68,7.97
5.186868906021118,-1.26,7.34,0.61,7.47
5.197103977203369,-0.57,7.04,0.49,7.08
5.20661187171936,0.08,6.53,0.49,6.54
5.2182018756866455,0.81,5.94,0.52,6.01
5.228531837463379,1.35,5.51,0.53,5.69
5.236774921417236,1.85,5.2,0.34,5.52
5.247010707855225,2.47,4.71,0.1,5.31
5.256958961486816,3.06,4.07,-0.02,5.09
5.2683398723602295,3.62,3.41,-0.22,4.97
5.278656005859375,4.01,2.6,-0.28,4.78
5.2869157791137695,4.32,2.01,-0.51,4.79
5.297289848327637,4.73,1.58,-0.95,5.07
5.306821823120117,5.26,1.44,-1.28,5.6
5.317988872528076,5.8,1.41,-1.28,6.1
5.328606843948364,6.25,1.06,-1.16,6.44
5.336857795715332,6.59,0.45,-1.21,6.71
5.347250938415527,7.0,0.15,-1.46,7.15
5.356898784637451,7.21,-0.03,-1.49,7.36
5.368261814117432,7.53,-0.49,-1.7,7.73
5.37883996963501,7.96,-0.94,-1.85,8.22
5.387012004852295,8.22,-1.37,-1.74,8.51
5.397305965423584,8.52,-1.94,-1.77,8.91
5.4068779945373535,8.74,-2.77,-1.73,9.33
5.418334007263184,8.85,-3.5,-1.55,9.64
5.428627014160156,8.79,-3.91,-1.35,9.71
5.436917781829834,8.82,-4.09,-1.27,9.8
5.447275876998901,8.89,-4.27,-1.2,9.93
5.456960916519165,8.91,-4.46,-1.27,10.04
5.468204975128174,8.84,-4.53,-1.21,10.0
5.478765964508057,8.72,-4.68,-1.19,9.96
5.486921787261963,8.45,-5.02,-1.49,9.94
5.497457027435303,8.21,-5.39,-1.73,9.97
5.506962776184082,8.09,-5.41,-1.93,9.92
5.518127918243408,7.96,-5.17,-1.96,9.69
5.528759956359863,7.91,-4.98,-1.93,9.54
5.5369110107421875,7.95,-4.61,-2.11,9.42
5.547404766082764,7.85,-4.37,-2.16,9.24
5.556973934173584,7.61,-4.5,-2.24,9.12
5.5680859088897705,7.36,-4.56,-2.45,8.99
5.578676700592041,7.16,-4.65,-2.37,8.86
5.5869526863098145,7.01,-4.86,-2.21,8.81
5.597371816635132,6.94,-4.99,-2.17,8.81
5.60690975189209,6.81,-5.0,-2.07,8.69
5.618035793304443,6.66,-4.8,-2.04,8.45
5.6288018226623535,6.45,-4.49,-2.05,8.12
5.636995792388916,6.28,-4.16,-2.26,7.86
5.647299766540527,6.19,-3.74,-2.25,7.57
5.656970024108887,6.16,-3.38,-1.93,7.28
5.66801381111145,6.03,-3.0,-1.59,6.92
5.678807735443115,5.63,-2.41,-1.72,6.36
5.687103748321533,5.15,-1.84,-2.1,5.85
5.697515964508057,4.79,-1.55,-2.35,5.55
5.707103729248047,4.76,-1.12,-2.05,5.3
5.7182629108428955,4.77,-0.52,-1.25,4.95
5.729029893875122,4.65,0.04,-0.94,4.74
5.737209796905518,4.52,0.36,-1.17,4.68
5.747570991516113,4.36,0.53,-1.02,4.5
5.757182836532593,4.19,0.57,-0.53,4.26
5.768042802810669,4.03,0.35,-0.13,4.04
5.778908729553223,3.89,0.14,0.13,3.89
5.787097930908203,3.72,0.02,0.31,3.73
5.797574996948242,3.57,0.06,0.49,3.6
5.807111740112305,3.38,0.2,0.61,3.44
5.818138837814331,3.32,0.48,0.38,3.37
5.829027891159058,3.07,0.83,0.21,3.18
5.837284803390503,2.7,1.07,0.01,2.9
5.847574710845947,2.38,1.14,-0.41,2.67
5.857285022735596,1.96,1.32,-0.59,2.43
5.86801290512085,1.59,1.66,-0.51,2.35
5.878926753997803,1.21,2.02,-0.69,2.45
5.887218952178955,1.08,2.34,-1.02,2.77
5.897552013397217,0.93,2.79,-1.08,3.13
5.907067775726318,0.83,3.1,-0.95,3.34
5.917953014373779,0.8,3.3,-0.68,3.46
5.9291157722473145,0.66,3.59,-0.12,3.65
5.937222957611084,0.26,3.67,0.36,3.69
5.947573900222778,-0.24,3.74,0.23,3.75
5.957341909408569,-0.8,4.16,0.08,4.23
5.967821836471558,-1.13,4.84,0.19,4.97
5.979032039642334,-1.45,5.35,0.21,5.54
5.98732590675354,-1.78,5.51,0.37,5.8
5.9976630210876465,-2.09,5.68,0.74,6.09
6.007115840911865,-2.57,5.83,1.27,6.49
6.017942905426025,-3.08,5.89,1.81,6.88
6.029387950897217,-3.65,6.08,2.07,7.38
6.037254810333252,-4.18,6.33,1.66,7.76
6.047614812850952,-4.76,6.4,1.31,8.08
6.057292938232422,-4.96,6.46,1.13,8.22
6.068233013153076,-4.94,6.59,1.42,8.35
6.079463005065918,-5.14,6.55,2.07,8.57
6.087319850921631,-5.55,6.42,2.48,8.84
6.097723960876465,-5.93,6.45,2.74,9.18
6.107369899749756,-6.17,6.83,2.99,9.67
6.117743968963623,-6.46,7.14,3.09,10.11
6.129490852355957,-6.54,7.49,2.64,10.28
6.137448787689209,-6.8,8.01,2.55,10.81
6.147801876068115,-7.2,8.16,2.75,11.22
6.157413005828857,-7.38,8.12,2.57,11.26
6.167804718017578,-7.52,8.21,2.67,11.44
6.179499864578247,-7.54,8.38,2.74,11.6
6.187378883361816,-7.52,8.56,2.68,11.7
6.197791814804077,-7.37,8.67,2.49,11.64
6.207331895828247,-7.32,8.66,2.12,11.53
6.217723846435547,-7.27,8.63,1.53,11.38
6.229526996612549,-7.05,8.68,1.22,11.24
6.237450838088989,-6.53,8.7,0.96,10.92
6.247771739959717,-6.07,8.81,0.97,10.74
6.25742769241333,-5.92,8.41,0.82,10.31
6.267602920532227,-5.48,8.53,0.27,10.14
6.279393911361694,-5.04,8.08,0.51,9.53
6.287410736083984,-4.41,7.55,0.04,8.74
6.297743797302246,-3.91,7.21,0.12,8.2
6.30741286277771,-3.2,6.94,0.2,7.64
6.317674875259399,-2.47,6.6,0.29,7.05
6.329464912414551,-1.81,6.17,0.45,6.44
6.337369918823242,-1.16,5.71,0.42,5.84
6.347725868225098,-0.56,5.32,0.37,5.36
6.357424736022949,-0.01,4.9,0.39,4.91
6.367535829544067,0.38,4.49,0.38,4.52
6.37966775894165,0.89,4.13,0.26,4.23
6.387572765350342,1.42,3.78,0.22,4.04
6.397841930389404,1.69,3.54,-0.07,3.92
6.407501697540283,2.04,3.51,-0.63,4.1
6.417663812637329,2.52,3.43,-0.85,4.34
6.429495811462402,2.93,3.13,-0.85,4.37
6.437556743621826,3.48,2.86,-1.05,4.62
6.447885036468506,4.05,2.57,-1.07,4.91
6.457579851150513,4.55,2.1,-1.03,5.11
6.467516899108887,5.03,1.6,-1.21,5.41
6.47967791557312,5.53,1.14,-1.24,5.78
6.487605810165405,6.01,0.79,-1.29,6.19
6.497926712036133,6.49,0.56,-1.12,6.6
6.507431983947754,6.95,0.01,-0.9,7.0
6.517360687255859,7.06,-0.46,-0.87,7.12
6.529598712921143,7.31,-0.79,-1.09,7.43
6.537475824356079,7.47,-1.03,-1.01,7.6
6.547973871231079,7.55,-1.64,-0.93,7.78
6.557693004608154,7.73,-2.14,-1.09,8.09
6.5674309730529785,7.8,-2.55,-1.15,8.28
6.57956075668335,7.68,-3.14,-1.26,8.39
6.587625980377197,7.6,-3.4,-1.54,8.46
6.598057746887207,7.61,-3.71,-1.36,8.57
6.6075639724731445,7.65,-4.1,-1.44,8.79
6.617451906204224,7.52,-4.43,-1.41,8.84
6.62985897064209,7.53,-4.69,-1.44,8.98
6.637523889541626,7.45,-4.66,-1.36,8.89
6.647914886474609,7.35,-4.85,-1.28,8.89
6.657398700714111,7.27,-5.15,-1.28,9.0
6.667327880859375,7.19,-5.4,-1.43,9.1
6.679746866226196,7.18,-5.33,-1.53,9.07
6.687563896179199,7.01,-5.06,-1.48,8.77
6.697852849960327,6.64,-5.06,-1.88,8.55
6.707579851150513,6.53,-5.18,-2.35,8.66
6.7175679206848145,6.37,-5.09,-2.22,8.45
6.729902744293213,6.23,-5.1,-1.99,8.29
6.737600803375244,6.26,-5.14,-1.85,8.3
6.74807071685791,6.23,-5.05,-1.7,8.19
6.7577338218688965,6.24,-4.97,-1.76,8.16
6.767521858215332,6.16,-4.96,-1.76,8.1
6.77968692779541,6.08,-4.96,-1.65,8.01
6.7876129150390625,6.01,-4.93,-1.62,7.94
6.798112869262695,6.03,-4.88,-1.58,7.91
6.807584762573242,6.18,-4.59,-1.51,7.84
6.817249774932861,6.05,-4.27,-1.49,7.55
6.829869747161865,5.84,-4.18,-1.65,7.36
6.837623834609985,5.53,-3.72,-1.73,6.88
6.847978830337524,5.39,-3.36,-1.68,6.56
6.857793807983398,5.4,-2.98,-1.51,6.34
6.867228031158447,5.32,-2.57,-1.22,6.03
6.879994869232178,5.41,-2.11,-1.05,5.9
6.887727737426758,5.42,-1.46,-0.93,5.68
6.898310899734497,5.44,-0.89,-0.86,5.57
6.907663822174072,5.26,-0.43,-0.82,5.34
6.917143821716309,5.07,-0.01,-0.97,5.16
6.930109977722168,4.85,0.29,-1.22,5.0
6.937753915786743,4.68,0.44,-1.29,4.87
6.94813871383667,4.47,0.62,-1.24,4.68
6.957831859588623,4.37,0.66,-1.04,4.54
6.967164039611816,4.31,0.7,-0.81,4.44
6.9799559116363525,4.21,0.77,-0.52,4.31
6.987746715545654,4.12,0.94,-0.3,4.23
6.99822473526001,3.91,0.97,-0.28,4.03
7.007768869400024,3.62,1.03,-0.57,3.8
7.017087936401367,3.27,1.14,-0.69,3.53
7.029831886291504,2.85,1.29,-0.91,3.25
7.037779808044434,2.53,1.47,-1.35,3.22
7.048257827758789,2.3,1.96,-1.47,3.36
7.057857036590576,2.06,2.45,-1.44,3.5
7.067115783691406,1.82,2.84,-1.45,3.67
7.080014705657959,1.46,3.24,-1.14,3.73
7.087843894958496,1.18,3.73,-0.7,3.97
7.098343849182129,0.88,4.23,-0.43,4.34
7.1078948974609375,0.63,4.67,-0.25,4.71
7.117049694061279,0.23,5.21,-0.1,5.21
7.130113840103149,-0.22,5.68,-0.04,5.68
7.137876987457275,-0.66,6.07,0.03,6.1
7.148277759552002,-1.22,6.4,0.18,6.51
7.157763957977295,-1.86,6.64,0.18,6.89
7.167171955108643,-2.5,6.86,0.15,7.3
7.180132865905762,-3.01,7.12,0.24,7.73
7.187875747680664,-3.69,7.34,0.35,8.22
7.198436737060547,-4.3,7.37,0.34,8.53
7.207794904708862,-4.64,7.32,0.54,8.68
7.216929912567139,-4.94,7.49,0.92,9.01
7.230146884918213,-5.45,7.53,1.14,9.36
7.238005876541138,-5.75,7.37,1.33,9.44
7.248328685760498,-5.98,7.11,1.6,9.42
7.2580578327178955,-6.14,6.96,1.92,9.47
7.267072916030884,-6.35,6.93,2.22,9.65
7.280276775360107,-6.53,6.72,2.41,9.67
7.287975788116455,-6.5,6.4,2.31,9.4
7.298187732696533,-6.5,6.46,2.43,9.48
7.3079447746276855,-6.48,6.73,2.87,9.77
7.316898822784424,-6.36,6.73,3.02,9.73
7.330267906188965,-6.21,6.56,2.93,9.49
7.337957859039307,-6.11,6.49,2.81,9.34
7.348361015319824,-6.02,6.4,2.8,9.22
7.358003854751587,-5.7,6.27,2.85,8.94
7.367019891738892,-5.38,6.18,3.1,8.76
7.380242824554443,-5.14,6.32,3.25,8.77
7.388068914413452,-4.96,6.6,3.26,8.87
7.398336887359619,-4.94,6.82,2.82,8.88
7.408048868179321,-4.93,7.02,2.35,8.89
7.416733741760254,-4.85,7.17,2.05,8.89
7.430274963378906,-4.65,7.16,1.67,8.69
7.438070774078369,-4.39,7.09,1.48,8.46
7.44838285446167,-4.14,6.93,1.42,8.19
7.458087921142578,-3.94,6.71,1.34,7.89
7.467060804367065,-3.7,6.54,1.16,7.6
7.480364799499512,-3.52,6.47,0.8,7.4
7.487994909286499,-3.23,6.75,0.41,7.49
7.498357772827148,-2.82,6.98,0.1,7.52
7.508052825927734,-2.61,7.04,-0.09,7.5
7.516742706298828,-2.17,7.05,-0.57,7.39
7.530287742614746,-1.9,6.99,-0.86,7.29
7.538182735443115,-1.61,6.81,-1.08,7.08
7.548277854919434,-1.02,6.59,-1.42,6.81
7.5582380294799805,-0.43,6.34,-1.4,6.5
7.566835880279541,0.25,6.09,-1.12,6.19
7.580362796783447,0.77,5.74,-0.84,5.85
7.588120937347412,1.33,5.28,-0.81,5.5
7.598427772521973,1.91,4.91,-0.72,5.31
7.6081647872924805,2.26,4.4,-0.7,4.99
7.6168599128723145,2.58,3.82,-0.91,4.69
7.630335807800293,3.02,3.34,-1.25,4.67
7.638142824172974,3.59,2.94,-1.37,4.83
7.648345947265625,4.16,2.58,-1.38,5.08
7.658244848251343,4.68,2.27,-1.51,5.41
7.666788816452026,4.97,1.82,-1.61,5.53
7.680383920669556,5.36,1.13,-1.77,5.75
7.688202857971191,5.59,0.58,-1.6,5.84
7.698309898376465,6.08,0.06,-1.58,6.28
7.708185911178589,6.42,-0.44,-1.33,6.57
7.7168378829956055,6.75,-0.96,-1.19,6.92
7.730568885803223,6.97,-1.49,-1.28,7.24
7.738181829452515,7.29,-1.84,-1.5,7.66
7.748371839523315,7.51,-2.23,-1.42,7.96
7.758240699768066,7.63,-2.69,-1.47,8.22
7.767158031463623,7.79,-3.08,-1.34,8.48
7.7804038524627686,7.88,-3.49,-1.08,8.68
7.788240909576416,7.97,-3.96,-0.9,8.94
7.798436880111694,7.98,-4.45,-0.96,9.18
7.808346748352051,7.93,-4.83,-1.12,9.35
7.816882848739624,7.84,-4.95,-1.19,9.34
7.830530881881714,7.66,-4.99,-1.34,9.23
7.8383588790893555,7.52,-4.93,-1.53,9.12
7.848340034484863,7.34,-4.89,-1.48,8.94
7.858274936676025,7.21,-4.8,-1.5,8.79
7.866782903671265,6.99,-4.73,-1.56,8.58
7.880569934844971,6.77,-4.67,-1.71,8.4
7.88835883140564,6.69,-4.59,-1.92,8.33
7.898386001586914,6.66,-4.39,-2.01,8.22
7.908183813095093,6.51,-4.39,-2.09,8.12
7.917089939117432,6.37,-4.5,-2.24,8.11
7.93071174621582,6.2,-4.38,-2.19,7.9
7.938349723815918,6.1,-4.36,-2.08,7.78
7.9482338428497314,5.89,-4.47,-2.1,7.68
7.958572864532471,5.93,-4.54,-2.13,7.76
7.967023849487305,5.96,-4.39,-1.98,7.66
7.980641841888428,5.8,-4.17,-1.85,7.37
7.988301753997803,5.82,-3.94,-1.72,7.23
7.998301029205322,5.84,-3.52,-1.51,6.98
8.008383750915527,5.8,-3.19,-1.49,6.78
8.016995906829834,5.75,-2.84,-1.54,6.59
8.03062391281128,5.8,-2.43,-1.42,6.44
8.038193702697754,5.8,-1.99,-1.32,6.27
8.048419952392578,5.55,-1.76,-1.61,6.04
8.058442831039429,5.32,-1.65,-2.05,5.93
8.06693696975708,5.18,-1.51,-2.13,5.8
8.08028793334961,5.04,-1.29,-2.0,5.57
8.08834171295166,4.8,-1.2,-1.67,5.22
8.0984468460083,4.68,-1.12,-1.51,5.04
8.108393907546997,4.55,-0.76,-1.27,4.78
8.117033004760742,4.47,-0.29,-1.08,4.6
8.13071584701538,4.29,0.1,-1.1,4.42
8.138412952423096,4.08,0.26,-1.32,4.29
8.148531913757324,4.06,0.4,-1.38,4.3
8.15855884552002,3.99,0.64,-1.17,4.2
8.167030811309814,3.78,0.85,-1.0,4.0
8.180816888809204,3.55,0.95,-1.01,3.81
8.188410758972168,3.24,0.85,-0.79,3.44
8.19862699508667,3.01,0.69,-0.66,3.15
8.208499908447266,2.82,0.58,-0.52,2.92
8.21724796295166,2.69,0.75,-0.24,2.8
8.23061490058899,2.56,0.93,-0.08,2.72
8.23845386505127,2.35,0.96,-0.28,2.55
8.248400688171387,2.11,1.03,-0.34,2.37
8.258495807647705,1.97,1.34,-0.02,2.38
8.267076969146729,1.9,1.65,0.3,2.53
8.28067398071289,1.79,1.95,0.44,2.68
8.28846788406372,1.68,2.36,0.43,2.92
8.29875898361206,1.54,2.76,0.51,3.2
8.308645725250244,1.2,3.15,0.7,3.44
8.317238807678223,0.76,3.66,0.96,3.85
8.330853939056396,0.16,4.16,0.75,4.23
8.338454723358154,-0.41,4.9,-0.38,4.93
8.348529815673828,-1.15,5.49,-1.33,5.76
8.358668804168701,-1.4,5.82,-1.61,6.19
8.367239952087402,-1.66,5.97,-0.85,6.25
8.380734920501709,-1.94,5.78,0.28,6.1
8.388554811477661,-2.23,5.28,1.24,5.86
8.398746013641357,-2.6,4.96,2.08,5.97
8.408580780029297,-2.87,4.98,2.91,6.44
8.417388916015625,-3.11,5.28,3.37,6.99
8.430919885635376,-3.53,5.47,3.51,7.39
8.438612937927246,-3.95,5.52,3.68,7.72
8.448791027069092,-4.35,5.8,4.06,8.3
8.45870590209961,-4.75,6.1,4.39,8.89
8.467213869094849,-5.24,6.42,4.47,9.41
8.48091173171997,-5.69,6.79,4.41,9.89
8.488740921020508,-6.11,7.27,4.44,10.48
8.498836994171143,-6.57,7.65,4.17,10.91
8.508654832839966,-6.81,7.89,3.54,11.0
8.51742696762085,-6.91,8.21,3.11,11.17
8.530838012695312,-7.11,8.48,2.95,11.45
8.538713932037354,-7.01,8.59,2.78,11.43
8.548858880996704,-6.99,8.55,2.8,11.39
8.558605909347534,-6.87,8.68,2.8,11.41
8.567364692687988,-6.9,8.65,2.43,11.32
8.580853939056396,-6.71,8.39,1.96,10.92
8.588596820831299,-6.47,8.2,1.76,10.59
8.598968029022217,-6.41,8.07,1.72,10.44
8.60854983329773,-6.18,8.07,1.43,10.26
8.617405891418457,-5.85,8.2,1.19,10.14
8.631099700927734,-5.52,8.33,1.08,10.05
8.638790845870972,-5.12,8.26,0.98,9.76
8.648842811584473,-4.82,7.98,0.8,9.35
8.658816814422607,-4.5,7.52,0.71,8.79
8.667439937591553,-3.98,7.19,0.92,8.26
8.680852890014648,-3.36,6.97,1.22,7.83
8.688825845718384,-2.84,6.69,1.44,7.4
8.698834896087646,-2.39,6.26,1.4,6.84
8.708769798278809,-1.98,5.79,1.48,6.29
8.717553853988647,-1.49,5.42,1.64,5.85
8.731215953826904,-0.73,5.4,1.79,5.73
8.738850831985474,0.0,5.6,1.94,5.92
8.748995780944824,0.4,5.4,1.76,5.69
8.758838891983032,0.76,5.19,1.51,5.45
8.767429828643799,1.27,5.02,1.45,5.37
8.781005859375,1.84,4.64,1.42,5.18
8.788771867752075,2.42,4.14,1.25,4.95
8.798942804336548,2.93,3.84,0.94,4.92
8.808726787567139,3.29,3.2,0.53,4.62
8.8175687789917,3.67,2.51,0.2,4.45
8.831050872802734,4.09,1.96,0.01,4.53
8.838774919509888,4.56,1.34,0.03,4.75
8.848897933959961,5.03,0.64,0.02,5.07
8.85887098312378,5.38,0.03,-0.2,5.38
8.867576837539673,5.63,-0.39,-0.5,5.66
8.881149768829346,5.91,-0.65,-0.64,5.97
8.88885498046875,6.14,-0.79,-0.62,6.22
8.899098873138428,6.35,-1.16,-0.59,6.48
8.908934831619263,6.56,-1.64,-0.7,6.79
8.91763687133789,6.57,-1.84,-0.66,6.85
8.930970907211304,6.57,-2.0,-0.31,6.87
8.93896484375,6.62,-2.63,-0.42,7.13
8.948988914489746,6.63,-3.02,-0.89,7.33
8.958966732025146,6.64,-2.84,-0.78,7.26
8.967653751373291,6.88,-2.97,-1.05,7.56
8.981206893920898,6.9,-3.06,-1.54,7.7
8.98893404006958,6.8,-2.98,-1.38,7.55
8.999017715454102,7.06,-3.17,-1.24,7.83
9.008668899536133,7.04,-3.21,-1.24,7.83
9.017714023590088,6.94,-2.93,-0.78,7.57
9.031104803085327,6.97,-3.11,-1.79,7.83
9.03895902633667,6.69,-3.25,-1.94,7.68
9.049043893814087,6.5,-3.22,-1.36,7.38
9.058985710144043,6.77,-3.18,-1.34,7.59
9.067624807357788,6.83,-3.14,-1.42,7.65
9.0814528465271,6.88,-3.16,-1.6,7.73
9.088924884796143,6.73,-2.99,-1.66,7.54
9.0990309715271,6.53,-2.8,-1.62,7.28
9.108918905258179,6.51,-2.89,-1.84,7.35
9.117753028869629,6.41,-3.0,-1.98,7.34
9.13123083114624,6.22,-3.12,-2.05,7.25
9.138994693756104,6.12,-3.2,-2.28,7.27
9.149056911468506,5.98,-3.22,-2.38,7.19
9.159060955047607,5.9,-3.26,-2.48,7.18
9.167768955230713,5.71,-3.28,-2.71,7.12
9.181184768676758,5.47,-3.34,-2.77,6.98
9.188963890075684,5.4,-3.47,-2.81,7.0
9.199031829833984,5.45,-3.38,-2.74,6.97
9.208972930908203,5.58,-3.07,-2.24,6.75
9.217774868011475,5.7,-2.74,-1.62,6.52
9.231345891952515,5.86,-2.52,-1.15,6.48
9.239004850387573,5.84,-2.33,-0.8,6.33
9.249122858047485,5.76,-2.23,-0.76,6.22
9.259119987487793,5.68,-1.94,-0.79,6.05
9.26773190498352,5.71,-1.68,-0.91,6.02
9.281253814697266,5.62,-1.41,-1.02,5.88
9.289004802703857,5.58,-1.21,-1.15,5.82
9.299257755279541,5.71,-0.88,-1.1,5.88
9.309057712554932,5.64,-0.64,-0.99,5.76
9.317749977111816,5.45,-0.68,-1.25,5.63
9.331289768218994,5.24,-0.84,-1.29,5.46
9.339125871658325,4.96,-0.86,-1.18,5.17
9.349081993103027,4.83,-0.86,-1.37,5.09
9.359257698059082,4.66,-0.58,-1.22,4.85
9.368034839630127,4.46,-0.28,-1.0,4.57
9.381249904632568,4.32,-0.11,-1.01,4.43
9.389101028442383,4.14,0.2,-0.88,4.23
9.39926290512085,3.88,0.52,-0.58,3.95
9.409144878387451,3.64,0.94,-0.52,3.79
9.417914867401123,3.25,1.46,-0.57,3.6
9.43130874633789,2.91,1.88,-0.54,3.5
9.43914794921875,2.64,2.43,-0.25,3.59
9.449321746826172,2.18,3.05,-0.12,3.75
9.459412813186646,1.59,3.63,-0.29,3.97
9.467909812927246,1.17,4.14,-0.42,4.32
9.481270790100098,0.94,4.53,-0.36,4.64
9.489189863204956,0.54,4.77,0.02,4.8
9.49924898147583,0.28,5.08,0.65,5.12
9.509200811386108,0.05,5.42,1.24,5.56
9.51793384552002,-0.14,5.6,1.58,5.82
9.531455993652344,-0.52,5.89,1.83,6.18
9.53929591178894,-1.08,6.31,1.9,6.67
9.54936170578003,-1.58,6.78,1.8,7.19
9.559944868087769,-2.02,7.17,1.83,7.67
9.56797170639038,-2.47,7.39,1.86,8.01
9.584775924682617,-2.98,7.46,1.92,8.25
9.588982820510864,-3.55,7.59,1.92,8.59
9.599424839019775,-3.97,7.7,1.97,8.88
9.609208822250366,-4.33,7.81,2.02,9.15
9.617970943450928,-4.74,7.68,1.96,9.23
9.631624698638916,-5.02,7.38,2.08,9.16
9.639369010925293,-5.27,7.14,2.6,9.24
9.649327754974365,-5.49,6.82,3.12,9.29
9.659406900405884,-5.57,6.39,3.49,9.16
9.667979717254639,-5.8,6.09,3.98,9.3
9.681557893753052,-6.17,5.98,4.22,9.57
9.689255714416504,-6.39,6.06,4.09,9.7
9.699464797973633,-6.75,6.25,3.75,9.93
9.709303855895996,-7.1,6.2,3.22,9.96
9.718063831329346,-7.21,6.1,3.04,9.92
9.731689929962158,-7.13,6.35,3.31,10.1
9.739405870437622,-7.14,6.43,3.41,10.19
9.749250888824463,-7.14,6.41,3.23,10.12
9.759809017181396,-7.12,6.65,3.22,10.26
9.768139839172363,-7.09,6.94,3.17,10.41
9.785627841949463,-7.06,7.14,2.86,10.44
9.789665699005127,-7.0,7.42,2.41,10.48
9.79952883720398,-6.95,7.69,2.03,10.56
9.809751033782959,-7.02,7.44,1.82,10.38
9.818150997161865,-6.28,7.63,0.86,9.91
9.835354804992676,-5.63,7.65,1.16,9.56
9.839439868927002,-5.03,7.42,1.14,9.03
9.849352836608887,-4.62,7.19,1.27,8.64
9.859920024871826,-4.08,7.06,1.63,8.31
9.868025779724121,-3.32,7.0,1.96,7.99
9.885138034820557,-2.57,6.96,2.2,7.73
9.889230728149414,-1.96,6.79,2.35,7.44
9.899569988250732,-1.3,6.48,2.33,7.0
9.909694910049438,-0.79,6.24,2.42,6.73
9.918124914169312,-0.26,5.92,2.58,6.46
9.935200691223145,0.34,5.71,2.5,6.24
9.93940782546997,0.85,5.41,2.14,5.87
9.949704885482788,1.4,4.95,1.69,5.41
9.959872722625732,1.9,4.66,1.48,5.24
9.968348979949951,2.37,4.35,1.19,5.09
9.98528790473938,2.81,3.79,0.69,4.76
9.98937702178955,3.24,3.26,0.32,4.6
9.999691009521484,3.8,2.58,0.07,4.59
10.009848833084106,4.31,1.87,0.09,4.69
10.018146991729736,4.6,1.43,0.01,4.81
10.035403728485107,4.88,1.02,-0.32,4.99
10.039536952972412,5.18,0.71,-0.86,5.29
10.049567699432373,5.57,0.55,-1.34,5.75
10.059912919998169,6.04,0.3,-1.53,6.23
10.068233013153076,6.51,-0.29,-1.81,6.76
10.085193872451782,6.66,-1.16,-2.01,7.05
10.089824914932251,6.98,-1.78,-2.26,7.54
10.099573850631714,7.27,-2.23,-2.42,7.98
10.109915733337402,7.68,-2.68,-2.28,8.44
10.118253707885742,7.94,-3.04,-1.86,8.7
10.13539171218872,8.38,-3.36,-1.6,9.16
10.139735698699951,8.58,-3.88,-1.31,9.5
10.149606704711914,8.63,-4.13,-1.26,9.64
10.15993595123291,8.74,-4.23,-1.25,9.78
10.168346881866455,8.69,-4.41,-1.39,9.84
10.185373783111572,8.64,-4.29,-1.73,9.8
10.189621925354004,8.31,-4.25,-1.62,9.47
10.19972276687622,8.24,-4.35,-1.85,9.49
10.209754943847656,8.03,-4.35,-1.95,9.33
10.218394756317139,7.82,-4.13,-2.06,9.08
10.235482692718506,7.57,-3.92,-2.24,8.81
10.239643812179565,7.36,-3.83,-2.6,8.69
10.249575853347778,7.19,-3.67,-2.98,8.6
10.260136842727661,7.13,-3.62,-3.13,8.58
10.2683687210083,7.0,-3.8,-3.12,8.55
10.285319805145264,6.91,-3.92,-3.01,8.49
10.289562702178955,6.75,-3.81,-2.79,8.23
10.299476861953735,6.74,-3.81,-2.79,8.22
10.310020923614502,6.66,-3.67,-2.72,8.07
10.318338871002197,6.52,-3.35,-2.55,7.76
10.335089683532715,6.43,-3.04,-2.55,7.55
10.339646816253662,6.34,-2.88,-2.61,7.43
10.349750995635986,6.24,-2.63,-2.68,7.28
10.360041856765747,6.17,-2.56,-2.67,7.19
10.368468761444092,6.16,-2.52,-2.5,7.1
10.385243892669678,6.15,-2.4,-2.25,6.97
10.38962697982788,6.11,-2.15,-2.0,6.77
10.399842739105225,6.0,-1.88,-1.82,6.54
10.410085916519165,5.86,-1.66,-1.87,6.37
10.41847276687622,5.69,-1.49,-1.95,6.19
10.435263872146606,5.47,-1.02,-1.85,5.86
10.439728736877441,5.28,-0.62,-1.63,5.56
10.449753761291504,4.95,-0.34,-1.6,5.21
10.460194826126099,4.68,0.11,-1.48,4.9
10.468446731567383,4.54,0.61,-1.19,4.73
10.485246896743774,4.4,1.03,-1.05,4.63
10.489699840545654,4.2,1.14,-0.84,4.43
10.4998939037323,3.79,1.1,-0.7,4.0
10.510060787200928,3.39,1.0,-0.67,3.59
10.518572807312012,2.97,1.02,-0.66,3.2
10.53510570526123,2.61,1.16,-0.69,2.93
10.539834022521973,2.31,1.21,-0.79,2.72
10.549866914749146,2.07,1.4,-0.8,2.62
10.560313701629639,1.84,1.62,-0.69,2.54
10.568641901016235,1.75,1.76,-0.52,2.53
10.585222721099854,1.67,1.9,-0.21,2.53
10.589680910110474,1.66,2.16,0.06,2.72
10.599962711334229,1.52,2.24,0.36,2.73
10.610095977783203,1.34,2.3,0.48,2.7
10.618533849716187,1.16,2.39,0.69,2.74
10.635167837142944,0.82,2.5,1.05,2.83
10.639883995056152,0.42,2.92,1.27,3.21
10.649942874908447,0.05,3.22,1.34,3.48
10.660473823547363,-0.34,3.45,1.28,3.69
10.668739795684814,-0.69,3.66,1.33,3.95
10.685083866119385,-1.02,3.85,1.56,4.27
10.689852714538574,-1.38,4.09,1.87,4.7
10.700089931488037,-1.8,4.56,2.22,5.38
10.710158824920654,-2.3,5.25,2.52,6.26
10.718715906143188,-2.79,5.92,2.82,7.12
10.734968900680542,-3.5,6.47,3.06,7.96
10.739840030670166,-4.3,6.76,2.97,8.54
10.750006914138794,-4.69,7.18,2.63,8.97
10.760387897491455,-5.11,7.61,2.86,9.6
10.768599033355713,-5.44,7.66,3.19,9.92
10.785140037536621,-5.57,7.46,3.52,9.95
10.789825916290283,-5.76,7.4,4.17,10.26
10.800033807754517,-5.9,7.49,4.64,10.6
10.810313701629639,-6.28,7.63,4.65,10.92
10.81875991821289,-6.52,7.76,4.15,10.95
10.83510684967041,-6.82,8.01,3.66,11.13
10.839926719665527,-7.14,8.06,3.23,11.24
10.850059986114502,-7.23,7.95,2.95,11.14
10.860440731048584,-7.28,7.89,3.13,11.18
10.86872673034668,-7.16,7.76,3.28,11.05
10.884912967681885,-7.0,7.6,3.31,10.84
10.889878749847412,-6.79,7.52,3.29,10.65
10.900228023529053,-6.54,7.69,3.3,10.62
10.910278797149658,-6.43,7.91,3.01,10.62
10.91875696182251,-6.21,7.81,2.56,10.3
10.934999942779541,-6.04,7.86,2.22,10.15
10.940001964569092,-5.92,8.03,1.85,10.14
10.949988842010498,-5.54,8.29,1.4,10.06
10.960436820983887,-5.2,8.61,1.11,10.11
10.968764781951904,-4.64,8.79,0.89,9.97
10.984821796417236,-4.03,8.96,0.85,9.86
10.98994779586792,-3.68,9.09,1.02,9.85
11.000250816345215,-3.05,9.0,0.89,9.54
11.01045274734497,-2.45,8.89,0.76,9.25
11.0187349319458,-1.9,8.93,0.84,9.16
11.034749984741211,-1.44,8.78,0.82,8.93
11.040058851242065,-0.86,8.35,0.46,8.4
11.0500807762146,-0.26,7.9,0.17,7.9
11.060423851013184,0.19,7.45,0.2,7.45
11.068786859512329,0.79,7.07,0.23,7.11
11.084815979003906,1.48,6.73,0.03,6.89
11.090100765228271,2.01,6.13,-0.25,6.45
11.100384712219238,2.55,5.52,-0.33,6.08
11.110402822494507,3.03,4.87,-0.37,5.74
11.118844032287598,3.44,4.05,-0.57,5.34
11.134914875030518,3.81,3.3,-0.95,5.12
11.140110969543457,4.3,2.73,-1.08,5.2
11.150166988372803,4.9,2.03,-0.85,5.37
11.16054391860962,5.57,1.33,-0.52,5.75
11.16886591911316,6.14,0.83,-0.51,6.21
11.184823036193848,6.48,0.68,-0.68,6.55
11.19008183479309,6.85,0.55,-0.88,6.92
11.200259685516357,7.26,0.19,-0.96,7.32
11.210523843765259,7.69,-0.29,-1.08,7.77
11.218833923339844,7.98,-0.87,-1.01,8.09
11.234864711761475,8.35,-1.65,-0.82,8.55
11.240136861801147,8.54,-2.42,-0.83,8.91
11.250187873840332,8.75,-2.97,-0.81,9.27
11.260711908340454,8.98,-3.31,-0.59,9.58
11.268908977508545,9.1,-3.74,-0.49,9.85
11.28473687171936,9.09,-3.98,-0.7,9.94
11.290157794952393,9.02,-4.07,-0.93,9.93
11.3003568649292,8.96,-4.43,-1.02,10.04
11.3106689453125,8.87,-4.79,-1.12,10.14
11.319046974182129,8.76,-5.26,-1.26,10.29
11.334728717803955,8.64,-5.82,-1.34,10.5
11.340238809585571,8.49,-6.09,-1.56,10.56
11.350247859954834,8.31,-6.17,-1.79,10.5
11.360723972320557,8.28,-6.23,-1.9,10.53
11.368984699249268,8.2,-6.35,-1.99,10.56
11.384697914123535,8.21,-6.32,-2.2,10.59
11.390288829803467,8.09,-6.28,-2.36,10.5
11.400322914123535,7.84,-6.45,-2.57,10.47
11.410668849945068,7.57,-6.59,-2.75,10.4
11.418997764587402,7.43,-6.57,-2.76,10.29
11.434717893600464,7.39,-6.27,-2.47,10.0
11.440242767333984,7.47,-6.01,-2.34,9.86
11.450312852859497,7.53,-5.73,-2.29,9.73
11.460750818252563,7.5,-5.41,-2.11,9.48
11.46904468536377,7.4,-5.3,-2.03,9.32
11.484740734100342,7.12,-5.24,-2.25,9.12
11.490264892578125,6.84,-5.21,-2.54,8.96
11.500473976135254,6.69,-5.14,-2.79,8.88
11.510826826095581,6.54,-4.9,-2.98,8.69
11.518869876861572,6.54,-4.63,-3.02,8.56
11.534657955169678,6.51,-4.2,-2.82,8.24
11.540324687957764,6.52,-3.66,-2.45,7.86
11.550399780273438,6.45,-3.13,-2.22,7.5
11.560783863067627,6.26,-2.6,-2.17,7.11
11.569116830825806,6.14,-2.11,-2.21,6.85
11.58466100692749,5.85,-1.64,-2.13,6.43
11.590304851531982,5.58,-1.11,-2.01,6.03
11.600533962249756,5.36,-0.79,-2.05,5.79
11.610782861709595,5.24,-0.41,-2.0,5.62
11.619157791137695,5.19,0.18,-1.64,5.44
11.634732723236084,5.11,0.8,-1.3,5.33
11.640359878540039,5.07,1.38,-1.18,5.38
11.650431871414185,4.81,1.89,-1.13,5.29
11.660883903503418,4.62,2.42,-1.12,5.33
11.669214725494385,4.48,2.97,-0.84,5.44
11.684379816055298,4.32,3.36,-0.65,5.51
11.690323829650879,4.08,3.77,-0.62,5.58
11.700578689575195,3.78,3.98,-0.34,5.49
11.710875034332275,3.42,4.03,-0.11,5.28
11.719190835952759,3.08,4.24,-0.06,5.24
11.734465837478638,2.64,4.42,-0.03,5.14
11.740429878234863,2.27,4.48,-0.11,5.02
11.750487804412842,1.86,4.64,-0.01,4.99
11.760887861251831,1.41,4.9,0.27,5.1
11.769256830215454,1.06,5.28,0.49,5.4
11.784502983093262,0.63,5.9,0.61,5.96
11.790395736694336,0.2,6.58,0.68,6.61
11.800557851791382,-0.3,6.93,0.78,6.98
11.810904026031494,-0.74,6.97,0.88,7.06
11.819239854812622,-1.53,7.01,1.36,7.3
11.834731817245483,-2.32,7.04,1.66,7.59
11.840499877929688,-2.84,7.01,1.77,7.76
11.8505859375,-3.33,7.1,2.25,8.15
11.861074924468994,-3.75,7.23,2.81,8.61
11.869241714477539,-4.16,7.47,3.3,9.16
11.884439945220947,-4.55,7.69,3.77,9.69
11.89050579071045,-4.91,7.91,4.07,10.16
11.900672912597656,-5.35,8.1,4.26,10.6
11.910930871963501,-5.75,8.24,4.27,10.91
11.919302940368652,-6.21,8.47,4.32,11.35
11.934476852416992,-6.58,8.67,4.26,11.68
11.940510749816895,-6.87,8.97,4.13,12.02
11.950678825378418,-7.33,9.25,4.02,12.46
11.961004734039307,-7.38,9.36,3.67,12.47
11.969359874725342,-7.4,9.69,3.77,12.76
11.984315872192383,-7.35,10.04,3.96,13.05
11.990565776824951,-7.42,10.32,4.0,13.32
12.00068187713623,-7.48,10.5,3.64,13.39
12.011034965515137,-7.43,10.66,3.07,13.35
12.01941180229187,-7.38,10.78,2.69,13.33
12.034377813339233,-7.31,10.88,2.09,13.27
12.040663719177246,-7.04,11.1,1.4,13.21
12.050702810287476,-6.62,11.34,0.89,13.16
12.061096906661987,-6.08,11.18,0.79,12.75
12.069347858428955,-5.61,10.93,1.05,12.33
12.084344863891602,-4.94,10.68,1.28,11.83
12.090651035308838,-4.28,10.39,1.36,11.31
12.100809812545776,-3.42,10.16,1.37,10.8
12.11101484298706,-2.5,10.0,1.67,10.44
12.119398832321167,-1.79,9.87,1.85,10.2
12.134291887283325,-1.2,9.63,1.55,9.82
12.140690803527832,-0.61,9.34,1.23,9.44
12.150696754455566,0.01,9.25,0.94,9.29
12.161234855651855,0.76,9.11,0.67,9.16
12.169451713562012,1.39,8.67,0.25,8.78
12.184189796447754,2.11,8.11,0.07,8.38
12.190661907196045,2.83,7.58,0.23,8.09
12.200853824615479,3.58,6.98,0.31,7.85
12.211041927337646,4.17,6.4,0.17,7.64
12.219594955444336,4.85,5.96,-0.08,7.68
12.234348773956299,5.52,5.43,-0.27,7.74
12.24073600769043,6.23,4.82,-0.37,7.88
12.25075101852417,6.88,4.13,-0.33,8.03
12.261192798614502,7.36,3.3,-0.43,8.07
12.269508838653564,7.8,2.41,-0.71,8.19
12.284194946289062,8.19,1.62,-0.77,8.38
12.29073190689087,8.54,0.9,-0.93,8.63
12.300909996032715,8.97,0.03,-1.21,9.05
12.311170816421509,9.31,-0.97,-1.4,9.46
12.319519996643066,9.39,-1.99,-1.57,9.72
12.334298849105835,9.55,-2.84,-1.72,10.11
12.340516805648804,9.64,-3.62,-1.72,10.43
12.350916862487793,9.5,-4.18,-1.8,10.53
12.36119794845581,9.4,-4.74,-2.02,10.71
12.369588851928711,9.23,-5.39,-2.28,10.92
12.38421082496643,8.96,-5.92,-2.53,11.03
12.391129970550537,8.7,-6.22,-2.62,11.01
12.400888919830322,8.43,-6.5,-2.91,11.03
12.411176919937134,8.57,-6.61,-3.4,11.34
12.419603824615479,8.32,-6.59,-3.05,11.04
12.434077739715576,8.22,-6.62,-3.05,10.98
12.441144943237305,7.97,-6.54,-3.06,10.75
12.450851917266846,7.78,-6.35,-3.09,10.5
12.461262702941895,7.69,-6.19,-3.29,10.4
12.469689846038818,7.64,-5.96,-3.54,10.31
12.484150886535645,7.56,-5.62,-3.58,10.07
12.491238832473755,7.43,-5.33,-3.63,9.83
12.501029014587402,7.45,-5.24,-3.53,9.76
12.511202812194824,7.47,-5.11,-3.34,9.64
12.519683837890625,7.41,-4.93,-3.19,9.45
12.534178733825684,7.25,-4.75,-3.13,9.21
12.54123592376709,7.22,-4.66,-3.18,9.16
12.550757884979248,7.23,-4.66,-3.07,9.13
12.561094760894775,7.2,-4.64,-2.81,9.01
12.569761753082275,7.11,-4.63,-2.57,8.86
12.583972930908203,7.03,-4.74,-2.6,8.86
12.591208934783936,7.02,-4.7,-2.62,8.84
12.60105586051941,6.86,-4.4,-2.45,8.51
12.611172914505005,6.7,-4.25,-2.44,8.3
12.619746685028076,6.56,-4.14,-2.49,8.14
12.634053707122803,6.43,-4.03,-2.52,7.99
12.641249895095825,6.3,-3.95,-2.58,7.87
12.650996685028076,6.17,-3.94,-2.76,7.82
12.66102385520935,6.02,-3.94,-2.97,7.78
12.66973876953125,5.91,-3.89,-3.09,7.72
12.684117794036865,5.87,-3.84,-2.86,7.57
12.691539764404297,5.93,-3.68,-2.5,7.41
12.701245784759521,6.02,-3.33,-2.11,7.19
12.711180686950684,6.11,-2.69,-1.78,6.9
12.719902038574219,6.27,-2.03,-1.75,6.81
12.734057903289795,6.37,-1.27,-1.52,6.67
12.741281986236572,6.45,-0.46,-1.17,6.57
12.751113891601562,6.29,0.03,-1.07,6.38
12.761169910430908,5.99,0.45,-1.23,6.13
12.769721031188965,5.82,1.03,-1.18,6.02
12.783906936645508,5.9,1.83,-0.87,6.23
12.791396856307983,5.98,2.67,-0.42,6.56
12.801048755645752,5.87,3.54,-0.13,6.85
12.811071872711182,5.6,4.33,-0.06,7.07
12.819710731506348,5.31,5.03,-0.13,7.31
12.834198951721191,4.92,5.63,-0.05,7.47
12.841424942016602,4.25,6.2,-0.12,7.51
12.851123809814453,3.52,6.62,-0.66,7.52
12.861109733581543,2.83,6.83,-1.17,7.48
12.869795799255371,2.23,6.94,-1.23,7.39
12.884033918380737,1.77,6.93,-0.91,7.21
12.891347885131836,1.32,6.87,-0.4,7.0
12.901200771331787,0.81,6.8,-0.03,6.84
12.911061763763428,0.32,6.83,0.07,6.83
12.919811725616455,-0.13,7.08,0.1,7.08
12.933956861495972,-0.4,7.23,0.57,7.26
12.94143295288086,-0.69,7.38,1.45,7.55
12.951111793518066,-1.28,7.62,2.24,8.04
12.961123943328857,-2.02,7.65,2.51,8.3
12.970018863677979,-2.72,7.61,2.41,8.43
12.98387098312378,-3.34,7.65,2.51,8.71
12.991568803787231,-3.78,7.71,2.85,9.04
13.001241683959961,-4.0,7.79,3.39,9.39
13.01137399673462,-4.28,8.11,4.18,10.07
13.019887924194336,-4.59,8.45,4.82,10.75
13.033898830413818,-4.9,8.8,4.97,11.23
13.041342735290527,-5.23,9.35,4.97,11.81
13.051414966583252,-5.61,9.95,4.9,12.42
13.061173915863037,-6.03,10.21,4.66,12.74
13.07007384300232,-6.54,10.3,4.13,12.88
13.083793878555298,-6.85,10.33,3.69,12.93
13.09164571762085,-6.98,10.58,3.57,13.16
13.101471900939941,-6.93,10.86,3.54,13.36
13.111032962799072,-6.85,10.97,3.39,13.36
13.119950771331787,-6.81,11.05,3.12,13.34
13.133846759796143,-6.76,11.0,2.76,13.2
13.141623973846436,-6.6,10.82,2.55,12.92
13.151334762573242,-6.38,10.66,2.54,12.68
13.161269903182983,-6.13,10.46,2.35,12.34
13.170126914978027,-5.83,10.08,1.99,11.81
13.183868885040283,-5.39,9.76,1.84,11.3
13.191741943359375,-4.83,9.43,1.75,10.73
13.201292991638184,-4.29,9.12,1.65,10.21
13.211371898651123,-3.77,8.89,1.63,9.79
13.22006368637085,-3.22,8.77,1.71,9.49
13.233795881271362,-2.68,8.74,1.85,9.32
13.241649866104126,-2.23,8.73,1.97,9.22
13.251255989074707,-1.87,8.7,1.9,9.09
13.261297702789307,-1.39,8.64,1.79,8.93
13.270047903060913,-0.84,8.56,1.9,8.8
13.283787727355957,-0.24,8.37,1.88,8.58
13.291741847991943,0.38,8.14,1.65,8.31
13.301347732543945,0.9,7.91,1.53,8.1
13.31128978729248,1.45,7.58,1.33,7.83
13.320063829421997,2.05,7.24,1.06,7.59
13.333699703216553,2.61,6.94,1.05,7.48
13.34164571762085,3.04,6.57,0.96,7.3
13.351336002349854,3.46,6.05,0.67,7.0
13.361272811889648,3.84,5.58,0.26,6.77
13.37011194229126,4.31,5.12,-0.32,6.7
13.383769035339355,4.86,4.64,-0.75,6.76
13.391820907592773,5.42,4.18,-1.06,6.92
13.401399850845337,6.06,3.7,-1.06,7.17
13.411441802978516,6.75,3.06,-0.87,7.46
13.420150756835938,7.37,2.34,-0.62,7.75
13.433623790740967,7.88,1.64,-0.47,8.06
13.441840887069702,8.24,0.96,-0.67,8.32
13.451383829116821,8.54,0.2,-1.0,8.6
13.4615318775177,8.82,-0.43,-1.33,8.93
13.470157861709595,9.1,-1.16,-1.51,9.29
13.483634948730469,9.35,-1.82,-1.59,9.65
13.491829872131348,9.48,-2.41,-1.6,9.91
13.501543998718262,9.57,-3.11,-1.64,10.19
13.51128101348877,9.57,-3.74,-1.97,10.46
13.52020788192749,9.55,-4.1,-2.22,10.62
13.533597946166992,9.53,-4.51,-2.37,10.8
13.542003870010376,9.32,-5.01,-2.78,10.94
13.551478862762451,8.98,-5.39,-3.09,10.91
13.561651706695557,8.69,-5.64,-3.23,10.85
13.570290803909302,8.41,-5.89,-3.39,10.81
13.583621978759766,8.22,-6.01,-3.53,10.77
13.591552734375,7.99,-6.01,-3.58,10.61
13.60160779953003,7.83,-6.16,-3.76,10.64
13.611469745635986,7.69,-6.31,-3.69,10.6
13.62028980255127,7.56,-6.24,-3.6,10.44
13.633596897125244,7.27,-6.03,-3.69,10.14
13.642032861709595,7.16,-5.85,-3.88,10.02
13.651425838470459,7.19,-5.56,-3.87,9.87
13.661744832992554,7.13,-5.33,-3.66,9.62
13.670077800750732,7.13,-5.15,-3.65,9.52
13.68354082107544,7.0,-4.91,-3.55,9.25
13.691979885101318,6.96,-4.82,-3.49,9.15
13.701694011688232,7.01,-4.66,-3.39,9.07
13.71167802810669,6.94,-4.49,-3.01,8.79
13.720318794250488,6.8,-4.43,-2.95,8.63
13.733546733856201,6.7,-4.47,-2.94,8.57
13.741971969604492,6.65,-4.39,-2.69,8.41
13.751612901687622,6.49,-4.25,-2.56,8.16
13.761842727661133,6.3,-4.12,-2.76,8.01
13.770302772521973,6.23,-3.86,-2.8,7.84
13.783387899398804,6.18,-3.34,-2.54,7.46
13.791906833648682,6.17,-2.95,-2.48,7.27
13.801727771759033,6.18,-2.74,-2.56,7.22
13.811723709106445,6.16,-2.44,-2.35,7.03
13.820277690887451,6.1,-2.2,-2.06,6.8
13.833438873291016,5.93,-2.04,-2.0,6.58
13.842103004455566,5.83,-1.79,-2.06,6.43
13.851622819900513,5.85,-1.38,-2.03,6.34
13.861713886260986,5.82,-0.77,-1.85,6.15
13.870410919189453,5.85,-0.38,-1.62,6.08
13.883611917495728,5.81,-0.02,-1.31,5.95
13.892050743103027,5.6,0.35,-1.08,5.71
13.90176773071289,5.29,0.59,-1.12,5.43
13.911711692810059,4.86,0.93,-1.38,5.13
13.920369863510132,4.6,1.27,-1.49,4.99
13.9334077835083,4.42,1.68,-1.26,4.89
13.942147731781006,4.2,2.03,-0.97,4.76
13.95163869857788,4.05,2.16,-0.87,4.67
13.961874008178711,4.01,2.37,-0.67,4.7
13.970462799072266,3.94,2.51,-0.32,4.68
13.983400821685791,3.75,2.61,-0.18,4.57
13.992027759552002,3.5,2.75,0.09,4.45
14.001881837844849,3.16,2.99,0.61,4.39
14.011775970458984,2.75,3.32,0.9,4.4
14.0204439163208,2.29,3.67,0.78,4.39
14.033289909362793,1.89,4.16,0.56,4.6
14.042381763458252,1.52,4.66,0.52,4.92
14.051791906356812,1.19,5.23,0.64,5.4
14.061976909637451,1.06,5.83,0.93,5.99
14.070571899414062,0.68,6.06,1.35,6.24
14.083379745483398,-0.01,6.12,1.63,6.33
14.09211778640747,-0.5,6.19,1.62,6.41
14.101977825164795,-0.76,6.47,1.81,6.76
14.111827850341797,-1.2,6.68,1.99,7.07
14.120337963104248,-1.66,6.68,1.88,7.13
14.13336992263794,-2.0,6.8,1.9,7.33
14.142337799072266,-2.53,6.9,2.31,7.7
14.151844024658203,-3.05,6.85,2.49,7.9
14.162012815475464,-3.47,6.92,2.73,8.2
14.170565843582153,-3.99,7.1,3.24,8.76
14.183429718017578,-4.5,7.35,3.67,9.36
14.192044734954834,-5.2,7.53,3.68,9.86
14.20205283164978,-5.8,7.8,3.38,10.29
14.211764812469482,-6.42,7.95,3.33,10.74
14.220545768737793,-6.59,8.03,3.26,10.88
14.233397960662842,-6.84,8.49,3.73,11.52
14.242265701293945,-6.99,8.77,4.31,12.01
14.25188398361206,-7.31,8.86,4.44,12.31
14.261916875839233,-7.53,9.07,4.54,12.63
14.270602703094482,-7.65,9.26,4.62,12.86
14.28346300125122,-7.75,9.29,4.6,12.94
14.292268753051758,-7.74,9.28,4.51,12.89
14.302087783813477,-7.76,9.33,4.42,12.91
14.311921834945679,-7.67,9.21,4.38,12.76
14.32062292098999,-7.34,9.08,4.27,12.43
14.333436965942383,-7.02,9.05,4.22,12.2
14.342426776885986,-6.68,8.89,4.02,11.82
14.351841926574707,-6.33,8.78,3.74,11.45
14.361960887908936,-6.01,8.77,3.43,11.17
14.370642900466919,-5.63,8.72,2.97,10.79
14.383426904678345,-5.21,8.72,2.68,10.5
14.392265796661377,-4.72,8.81,2.65,10.34
14.402091979980469,-4.27,8.76,2.63,10.09
14.411815881729126,-3.9,8.43,2.36,9.58
14.42079782485962,-3.46,8.01,2.02,8.95
14.433570861816406,-2.79,7.59,1.93,8.31
14.442455768585205,-2.18,7.15,1.98,7.73
14.452058792114258,-1.62,6.81,1.89,7.25
14.462094783782959,-1.2,6.65,1.85,7.0
14.47066879272461,-0.72,6.16,1.59,6.4
14.483657836914062,-0.18,5.74,1.33,5.89
14.492401838302612,0.37,5.51,1.27,5.66
14.502027034759521,0.94,5.22,1.15,5.42
14.511988878250122,1.43,4.9,0.97,5.19
14.520792961120605,1.76,4.72,0.49,5.06
14.533718824386597,2.19,4.43,0.08,4.94
14.542566776275635,2.6,4.11,-0.11,4.86
14.552030801773071,3.12,3.84,-0.25,4.95
14.562119007110596,3.64,3.55,-0.28,5.09
14.570827007293701,4.05,3.26,-0.45,5.21
14.583732843399048,4.47,2.96,-0.74,5.41
14.592365741729736,4.94,2.78,-0.94,5.74
14.602123737335205,5.41,2.58,-1.09,6.09
14.612165927886963,5.84,2.4,-1.37,6.46
14.620779991149902,6.35,2.35,-1.7,6.98
14.633862018585205,6.9,2.2,-1.91,7.48
14.642635822296143,7.31,1.77,-2.14,7.81
14.652170896530151,7.57,1.06,-2.46,8.02
14.66209888458252,7.71,0.2,-2.64,8.15
14.670848846435547,7.84,-0.62,-2.9,8.38
14.683794975280762,7.98,-1.04,-3.19,8.65
14.692535877227783,8.33,-1.28,-3.13,8.99
14.702322959899902,8.8,-1.67,-2.61,9.32
14.712169885635376,9.11,-1.99,-2.13,9.56
14.720805883407593,9.17,-2.53,-1.79,9.67
14.734027862548828,9.11,-3.16,-1.72,9.79
14.742843866348267,8.98,-3.6,-1.83,9.84
14.752208709716797,8.63,-3.96,-2.1,9.72
14.762236833572388,8.4,-4.18,-2.62,9.74
14.770878791809082,8.19,-4.46,-2.79,9.73
14.783931732177734,7.98,-4.66,-2.96,9.7
14.79253888130188,7.86,-4.62,-2.98,9.59
14.802194833755493,7.55,-4.71,-2.82,9.33
14.812195777893066,7.54,-4.64,-3.04,9.36
14.820919036865234,7.45,-4.46,-2.88,9.14
14.833868980407715,7.41,-4.37,-2.74,9.02
14.842764854431152,7.47,-4.17,-2.67,8.96
14.852054834365845,7.42,-4.12,-2.47,8.83
14.862340927124023,7.09,-4.02,-2.55,8.53
14.870913982391357,6.82,-3.94,-2.82,8.36
14.883946895599365,6.77,-3.64,-2.77,8.17
14.89264988899231,6.69,-3.34,-2.67,7.93
14.902346849441528,6.63,-3.31,-2.74,7.9
14.91221570968628,6.59,-3.33,-2.55,7.81
14.92088794708252,6.55,-3.33,-2.24,7.68
14.933980941772461,6.4,-3.37,-1.95,7.49
14.942669868469238,6.35,-3.3,-1.76,7.36
14.95220685005188,6.42,-3.04,-1.45,7.24
14.962349891662598,6.34,-2.78,-1.24,7.03
14.97105598449707,6.09,-2.57,-1.41,6.75
14.98404598236084,5.73,-2.46,-1.73,6.47
14.992539882659912,5.48,-2.38,-2.13,6.34
15.002456903457642,5.2,-2.25,-2.39,6.14
15.01232099533081,4.73,-2.34,-2.64,5.9
15.021245956420898,4.42,-2.52,-2.84,5.82
15.034152030944824,4.12,-2.66,-2.44,5.47
15.042656898498535,4.04,-2.39,-2.02,5.11
15.052291870117188,3.99,-1.93,-1.62,4.71
15.062435865402222,3.98,-1.5,-1.52,4.51
15.071088790893555,3.96,-1.07,-1.56,4.38
15.084062814712524,4.01,-0.7,-1.32,4.27
15.09254789352417,3.78,-0.32,-0.63,3.84
15.102479934692383,3.37,-0.19,-0.03,3.37
15.11251974105835,3.1,0.08,0.16,3.1
15.121590852737427,2.88,0.38,0.21,2.91
15.13405990600586,2.86,0.57,0.12,2.91
15.142504692077637,2.97,0.92,0.13,3.11
15.152371883392334,3.17,1.37,0.31,3.46
15.162490844726562,3.31,1.53,0.43,3.67
15.17104196548462,3.02,1.7,0.73,3.54
15.1841139793396,2.4,2.03,1.23,3.37
15.192499876022339,1.91,2.56,1.21,3.41
15.202370882034302,1.51,3.18,0.83,3.61
15.212303876876831,1.32,3.76,0.37,4.0
15.221089839935303,1.07,4.21,-0.01,4.34
15.234256744384766,0.89,4.61,-0.48,4.71
15.24259090423584,0.75,4.87,-0.61,4.96
15.252461910247803,0.64,4.93,-0.31,4.98
15.262552738189697,0.42,4.87,0.26,4.89
15.271222829818726,0.13,4.97,0.8,5.03
15.284199714660645,0.03,5.16,0.76,5.21
15.292574882507324,-0.06,5.5,0.67,5.54
15.302557945251465,-0.4,5.78,0.78,5.84
15.312345027923584,-1.05,5.78,1.0,5.95
15.321290969848633,-1.75,5.81,1.08,6.16
15.334283828735352,-2.37,5.96,1.03,6.49
15.342657804489136,-2.78,5.94,0.86,6.61
15.352437973022461,-3.04,5.9,0.77,6.68
15.36254072189331,-3.21,5.85,0.93,6.73
15.371258735656738,-3.37,5.91,1.38,6.94
15.384333848953247,-3.51,6.18,2.07,7.4
15.392522811889648,-3.49,6.37,2.93,7.83
15.40269684791565,-3.7,6.22,3.97,8.25
15.412576913833618,-3.99,5.88,4.44,8.37
15.421329975128174,-4.41,5.73,4.9,8.73
15.434298038482666,-5.03,5.76,5.3,9.3
15.442681789398193,-5.52,5.74,5.36,9.59
15.45242190361023,-5.44,5.64,5.36,9.49
15.462588787078857,-5.38,5.77,5.76,9.76
15.471267700195312,-5.46,5.86,6.09,10.06
15.48428201675415,-5.49,5.99,6.27,10.26
15.492517948150635,-5.59,6.28,6.41,10.57
15.50278091430664,-5.57,6.29,6.22,10.45
15.512648820877075,-5.51,6.41,6.39,10.59
15.521317958831787,-5.45,6.64,6.51,10.77
15.534396886825562,-5.31,6.8,6.29,10.67
15.542768955230713,-5.16,6.96,5.91,10.48
15.55265474319458,-5.01,7.16,5.62,10.38
15.56267786026001,-4.77,7.29,5.43,10.26
15.571398735046387,-4.68,7.2,5.09,9.98
15.584319829940796,-4.5,7.04,4.57,9.52
15.592648983001709,-4.23,7.12,4.44,9.39
15.602706909179688,-3.98,7.14,4.22,9.19
15.61260986328125,-3.75,7.19,3.8,8.95
15.621416807174683,-3.51,7.43,3.36,8.87
15.634373903274536,-3.13,7.69,2.9,8.79
15.642770767211914,-2.71,7.75,2.51,8.58
15.652678966522217,-2.32,7.72,2.09,8.32
15.662762880325317,-1.94,7.6,1.65,8.01
15.671323776245117,-1.54,7.49,1.18,7.73
15.684461832046509,-1.09,7.42,0.68,7.53
15.692593812942505,-0.7,7.16,0.46,7.2
15.702738761901855,-0.16,6.52,0.26,6.52
15.712714910507202,0.35,5.99,0.32,6.0
15.721390724182129,0.83,5.52,0.29,5.58
15.734514713287354,1.35,4.8,0.0,4.98
15.742825984954834,1.76,4.24,-0.35,4.6
15.75268268585205,2.28,3.75,-0.62,4.43
15.762712955474854,2.77,3.27,-0.67,4.33
15.77668571472168,3.23,2.93,-0.54,4.39
15.784417867660522,3.66,2.52,-0.59,4.48
15.792804718017578,4.08,2.27,-0.75,4.72
15.802884817123413,4.47,1.97,-0.67,4.93
15.812776803970337,4.84,1.58,-0.74,5.14
15.821447849273682,5.12,1.39,-0.81,5.36
15.834539890289307,5.36,1.38,-0.99,5.62
15.84293794631958,5.78,1.04,-1.36,6.02
15.852782726287842,6.11,0.51,-1.71,6.36
15.86280870437622,6.39,0.19,-1.66,6.6
15.877131938934326,6.79,-0.39,-1.62,6.99
15.884567737579346,6.99,-1.23,-1.85,7.33
15.892976760864258,7.35,-1.83,-1.91,7.81
15.902899742126465,7.67,-2.47,-1.74,8.24
15.912848949432373,8.0,-3.03,-1.64,8.71
15.926838874816895,8.26,-3.29,-1.46,9.01
15.93468189239502,8.4,-3.77,-1.53,9.33
15.943046808242798,8.43,-4.29,-1.81,9.63
15.952951908111572,8.46,-4.28,-1.67,9.62
15.962978839874268,8.34,-4.22,-1.36,9.44
15.976873874664307,8.15,-4.61,-1.5,9.48
15.984588861465454,7.85,-4.69,-1.82,9.32
15.992841720581055,7.4,-4.77,-2.05,9.03
16.003082752227783,6.97,-4.93,-2.65,8.93
16.01289701461792,6.64,-4.97,-3.15,8.87
16.026817798614502,6.42,-4.87,-3.41,8.74
16.03474998474121,6.47,-4.69,-3.36,8.66
16.043211936950684,6.69,-4.27,-2.94,8.46
16.05286693572998,6.78,-3.89,-2.5,8.2
16.06295084953308,6.69,-3.55,-2.41,7.94
16.076977729797363,6.49,-3.17,-2.49,7.63
16.084699869155884,6.43,-2.8,-2.57,7.46
16.09282875061035,6.32,-2.53,-2.65,7.3
16.10318088531494,6.05,-2.34,-2.87,7.09
16.113070011138916,5.87,-2.32,-2.94,6.96
16.12730073928833,5.75,-2.5,-2.92,6.91
16.134946823120117,5.74,-2.73,-2.76,6.92
16.143263816833496,5.72,-2.9,-2.41,6.85
16.153084754943848,5.67,-3.2,-2.24,6.88
16.16312599182129,5.62,-3.3,-2.19,6.87
16.177085876464844,5.54,-3.2,-2.16,6.75
16.184749841690063,5.5,-3.13,-2.19,6.69
16.19301986694336,5.48,-2.94,-2.09,6.56
16.203258991241455,5.32,-2.79,-2.02,6.33
16.213053703308105,5.02,-2.82,-2.06,6.11
16.227087020874023,4.85,-2.5,-1.97,5.8
16.234839916229248,4.82,-2.08,-1.58,5.48
16.243229866027832,4.78,-1.77,-1.37,5.27
16.25313091278076,4.65,-1.45,-1.09,4.99
16.263182878494263,4.4,-1.29,-0.69,4.63
16.277164936065674,4.06,-1.14,-0.62,4.26
16.284732818603516,3.92,-0.77,-0.53,4.02
16.29306697845459,3.69,-0.26,-0.35,3.71
16.303197860717773,3.49,0.08,-0.58,3.53
16.31304383277893,3.22,0.33,-0.76,3.32
16.327116012573242,2.93,0.68,-0.79,3.1
16.334861755371094,2.9,1.09,-0.78,3.19
16.343243837356567,2.86,1.45,-0.7,3.28
16.35308599472046,2.84,1.73,-0.67,3.39
16.363229751586914,2.74,1.91,-0.52,3.38
16.37713885307312,2.78,2.11,-0.46,3.52
16.384861946105957,2.83,2.41,-0.32,3.73
16.393062829971313,2.68,2.43,0.02,3.61
16.403262853622437,2.6,2.24,0.37,3.45
16.413079738616943,2.45,2.14,0.64,3.31
16.4272518157959,2.22,2.27,0.98,3.32
16.434873819351196,1.94,2.61,0.87,3.36
16.44329595565796,1.68,3.0,0.37,3.45
16.45318603515625,1.39,3.27,-0.06,3.55
16.4632887840271,0.9,3.41,-0.38,3.54
16.47728991508484,0.37,3.51,-1.04,3.67
16.4848690032959,-0.18,3.57,-1.45,3.85
16.493199825286865,-0.47,3.6,-1.37,3.88
16.50327181816101,-0.58,3.59,-0.72,3.7
16.51324486732483,-0.74,3.58,0.08,3.65
16.527278900146484,-0.96,3.63,0.52,3.79
16.53498888015747,-1.2,3.77,0.72,4.02
16.543368816375732,-1.39,4.06,0.87,4.37
16.55323886871338,-1.62,4.51,0.97,4.88
16.563323974609375,-2.14,4.82,0.9,5.34
16.577358722686768,-2.68,4.91,0.72,5.63
16.584954738616943,-3.07,5.17,1.09,6.11
16.59361982345581,-3.51,5.43,1.69,6.68
16.603320837020874,-3.85,5.53,2.13,7.06
16.613494873046875,-4.15,5.74,2.48,7.5
16.62772274017334,-4.35,6.0,2.89,7.95
16.634902000427246,-4.59,6.14,3.23,8.31
16.643367767333984,-4.82,6.2,3.61,8.64
16.65317392349243,-4.94,6.17,3.91,8.81
16.66330885887146,-5.1,6.27,4.21,9.11
16.677295684814453,-5.37,6.36,4.5,9.46
16.68502378463745,-5.72,6.29,4.42,9.58
16.693206787109375,-5.97,6.26,4.03,9.54
16.70342779159546,-6.13,6.45,3.74,9.65
16.71327781677246,-6.21,6.65,3.65,9.8
16.727556705474854,-6.38,6.7,3.53,9.9
16.735079765319824,-6.49,6.75,3.39,9.95
16.74356484413147,-6.46,6.9,3.38,10.03
16.753286838531494,-6.38,7.01,3.34,10.04
16.763147830963135,-6.35,7.01,3.19,9.98
16.777410984039307,-6.12,7.1,3.09,9.86
16.785167694091797,-6.03,7.31,3.07,9.96
16.79350185394287,-5.91,7.44,2.78,9.9
16.803491830825806,-5.66,7.6,2.66,9.84
16.813231945037842,-5.39,7.83,2.56,9.84
16.827366828918457,-4.92,8.01,2.44,9.71
16.83484983444214,-4.45,8.02,2.47,9.49
16.84352970123291,-3.95,7.81,2.54,9.11
16.85335683822632,-3.43,7.53,2.51,8.64
16.863345861434937,-2.96,7.27,2.43,8.21
16.877513885498047,-2.35,7.0,2.24,7.71
16.885108947753906,-1.54,6.6,2.29,7.15
16.89336085319519,-0.7,6.16,2.85,6.82
16.90346384048462,-0.2,5.89,3.31,6.75
16.913448810577393,0.32,5.75,3.06,6.52
16.92779779434204,0.71,5.63,2.62,6.25
16.935062885284424,0.8,5.47,2.12,5.92
16.94348382949829,0.88,5.31,1.29,5.53
16.953373908996582,1.03,5.22,0.67,5.36
16.9633948802948,1.23,5.16,0.21,5.3
16.977547883987427,1.48,4.98,-0.35,5.2
16.985241889953613,1.83,4.83,-0.83,5.23
16.993407726287842,2.23,4.69,-0.95,5.27
17.003496885299683,2.73,4.22,-1.22,5.17
17.01348876953125,3.12,3.79,-1.41,5.1
17.027562856674194,3.56,3.44,-1.44,5.15
17.03519296646118,4.06,3.02,-1.62,5.31
17.043547868728638,4.48,2.48,-1.78,5.42
17.053343772888184,4.96,1.9,-1.83,5.61
17.063376903533936,5.47,1.26,-1.72,5.87
17.07752799987793,5.95,0.69,-1.57,6.19
17.08523988723755,6.32,0.0,-1.5,6.49
17.093477725982666,6.65,-0.77,-1.58,6.87
17.103554725646973,6.89,-1.41,-1.44,7.17
17.113593816757202,7.14,-1.98,-1.19,7.5
17.127686023712158,7.32,-2.41,-1.14,7.79
17.135583877563477,7.34,-2.84,-1.23,7.96
17.14350390434265,7.39,-3.15,-1.3,8.13
17.15351390838623,7.36,-3.54,-1.16,8.24
17.16340398788452,7.29,-3.89,-1.16,8.34
17.17775869369507,7.19,-4.19,-1.25,8.41
17.185120820999146,7.19,-4.47,-1.69,8.63
17.19357180595398,7.16,-4.61,-1.97,8.74
17.203604698181152,7.21,-4.75,-2.15,8.89
17.213584899902344,7.29,-4.74,-2.39,9.01
17.227598905563354,7.33,-4.73,-2.38,9.04
17.235281944274902,7.34,-4.66,-2.26,8.98
17.24362587928772,7.26,-4.65,-2.05,8.86
17.253443717956543,7.32,-4.63,-1.87,8.86
17.26358985900879,7.3,-4.4,-1.74,8.69
17.277705907821655,7.24,-4.12,-1.83,8.52
17.285330772399902,7.2,-3.92,-2.03,8.44
17.293381690979004,7.14,-3.9,-2.25,8.44
17.303929805755615,7.0,-4.05,-2.44,8.44
17.31366777420044,6.84,-4.02,-2.47,8.3
17.327829837799072,6.7,-4.08,-2.63,8.27
17.33544683456421,6.61,-4.14,-2.72,8.26
17.343528747558594,6.48,-4.05,-2.72,8.11
17.353420734405518,6.41,-4.08,-2.72,8.07
17.363701820373535,6.35,-4.13,-2.6,8.0
17.377705812454224,6.33,-4.02,-2.41,7.87
17.3853816986084,6.21,-3.85,-2.3,7.66
17.393505811691284,6.05,-3.68,-2.3,7.44
17.404001712799072,5.88,-3.44,-2.34,7.2
17.413769721984863,5.81,-3.21,-2.4,7.05
17.42764186859131,5.7,-2.98,-2.44,6.87
17.43548583984375,5.54,-2.91,-2.41,6.7
17.443816900253296,5.37,-2.95,-2.52,6.62
17.45380401611328,5.15,-2.95,-2.71,6.52
17.4637508392334,4.94,-2.81,-2.72,6.3
17.47768783569336,4.84,-2.78,-2.66,6.18
17.485387802124023,4.75,-2.75,-2.46,6.01
17.49379301071167,4.71,-2.6,-1.98,5.73
17.50415587425232,4.77,-2.26,-1.54,5.49
17.51375985145569,4.9,-1.6,-1.08,5.26
17.5278377532959,4.92,-0.79,-0.61,5.02
17.535560846328735,4.96,-0.17,-0.58,4.99
17.543896913528442,4.78,0.46,-0.72,4.85
17.554178714752197,4.53,0.92,-0.74,4.68
17.563786029815674,4.3,1.3,-0.75,4.55
17.577693939208984,4.12,1.65,-0.68,4.48
17.58541202545166,3.88,1.89,-0.45,4.33
17.593706846237183,3.69,2.1,-0.28,4.25
17.604119777679443,3.55,2.51,-0.13,4.34
17.61375379562378,3.42,2.98,0.09,4.53
17.627670764923096,3.31,3.44,0.19,4.77
17.635632038116455,3.11,3.94,0.12,5.02
17.64396095275879,2.7,4.22,0.05,5.01
17.654104709625244,2.27,4.31,-0.13,4.87
17.663962841033936,1.8,4.44,-0.35,4.8
17.67825174331665,1.39,4.55,-0.25,4.76
17.68556499481201,0.99,4.58,-0.07,4.68
17.693748950958252,0.59,4.55,-0.01,4.58
17.70418882369995,0.19,4.58,0.03,4.58
17.713786840438843,-0.22,4.59,0.07,4.59
17.727736949920654,-0.55,4.62,0.16,4.65
17.735661029815674,-0.86,4.63,0.35,4.72
17.743963718414307,-1.18,4.64,0.55,4.81
17.754337787628174,-1.53,4.69,0.8,4.99
17.763935804367065,-1.77,4.85,1.09,5.27
17.777873992919922,-2.08,5.16,1.67,5.8
17.785542011260986,-2.4,5.56,2.11,6.41
17.793855905532837,-2.72,6.07,2.31,7.04
17.804224967956543,-3.0,6.64,2.63,7.74
17.81386685371399,-3.4,7.07,2.98,8.39
17.827704906463623,-3.89,7.41,3.09,8.92
17.83577585220337,-4.38,7.71,3.33,9.47
17.844029903411865,-4.87,8.23,3.31,10.11
17.854509830474854,-5.32,8.6,3.24,10.61
17.8640079498291,-5.53,8.96,3.16,10.99
17.877838850021362,-5.73,9.27,3.36,11.4
17.885632038116455,-5.9,9.54,3.81,11.84
17.893951892852783,-6.02,9.74,3.94,12.1
17.904359817504883,-6.25,9.79,3.75,12.2
17.91402578353882,-6.5,9.75,3.44,12.21
17.927912712097168,-6.7,9.7,3.14,12.19
17.93573784828186,-6.76,9.53,2.78,12.01
17.94402503967285,-6.67,9.39,2.59,11.8
17.95432472229004,-6.52,9.32,2.53,11.65
17.963932991027832,-6.16,9.06,2.54,11.24
17.977665901184082,-5.8,8.67,2.58,10.74
17.985771894454956,-5.44,8.37,2.62,10.32
17.993712902069092,-5.09,8.05,2.62,9.87
18.00435495376587,-4.71,7.73,2.56,9.4
18.014067888259888,-4.29,7.5,2.53,9.0
18.02754497528076,-3.88,7.41,2.44,8.71
18.0357768535614,-3.46,7.26,2.42,8.39
18.04408884048462,-3.03,6.98,2.39,7.97
18.054454803466797,-2.58,6.8,2.36,7.64
18.064000844955444,-2.2,6.7,2.32,7.42
18.07760000228882,-1.73,6.55,2.07,7.08
18.085729837417603,-1.33,6.43,2.0,6.86
18.0937819480896,-0.99,6.28,2.0,6.66
18.104395866394043,-0.59,6.04,1.86,6.34
18.11405086517334,-0.15,5.75,1.66,5.98
18.12749481201172,0.24,5.48,1.36,5.65
18.135798931121826,0.68,5.1,1.11,5.26
18.144320964813232,1.08,4.76,1.0,4.98
18.154587745666504,1.56,4.47,0.87,4.81
18.16419792175293,1.95,4.29,0.66,4.75
18.17751693725586,2.29,3.93,0.16,4.55
18.185823917388916,2.71,3.58,-0.26,4.49
18.194052696228027,3.17,3.31,-0.37,4.59
18.204543828964233,3.46,2.94,-0.48,4.56
18.21406888961792,3.92,2.44,-0.71,4.67
18.22756576538086,4.41,2.03,-0.84,4.92
18.235809803009033,4.83,1.47,-0.93,5.13
18.24430274963379,5.31,0.96,-1.28,5.54
18.25460386276245,5.39,0.43,-1.31,5.56
18.264197826385498,5.82,0.01,-1.32,5.96
18.277525901794434,6.15,-0.15,-1.12,6.25
18.285847902297974,6.34,-0.09,-0.85,6.39
18.29425287246704,6.57,-0.35,-1.12,6.67
18.30453395843506,6.73,-0.68,-1.49,6.92
18.314288854599,6.77,-0.82,-1.73,7.03
18.32747173309326,6.81,-1.12,-1.9,7.15
18.335972785949707,6.76,-1.66,-2.05,7.25
18.344318866729736,6.98,-2.0,-2.22,7.59
18.354697704315186,7.11,-2.29,-2.32,7.82
18.364227771759033,7.3,-2.67,-2.35,8.12
18.377460956573486,7.14,-3.1,-2.21,8.09
18.385915756225586,7.47,-3.22,-2.14,8.41
18.394222736358643,7.55,-3.49,-1.96,8.54
18.404582977294922,7.76,-3.72,-2.12,8.86
18.414216995239258,7.83,-3.7,-2.16,8.92
18.42734980583191,7.85,-3.77,-2.05,8.94
18.436357975006104,7.83,-3.99,-2.25,9.07
18.44434380531311,7.76,-4.04,-2.34,9.05
18.454603910446167,7.56,-4.07,-2.35,8.9
18.46427583694458,7.45,-4.11,-2.54,8.87
18.47733187675476,7.41,-4.18,-2.73,8.93
18.485733032226562,7.22,-4.18,-2.94,8.84
18.494119882583618,6.97,-4.22,-3.13,8.72
18.504601001739502,6.7,-4.37,-3.26,8.63
18.514221906661987,6.46,-4.64,-3.3,8.61
18.527299880981445,6.28,-4.88,-3.17,8.56
18.53647780418396,6.07,-4.9,-3.01,8.36
18.54440975189209,5.84,-4.81,-2.99,8.13
18.554752826690674,5.78,-4.67,-3.15,8.07
18.56436586380005,5.69,-4.32,-3.3,7.86
18.57738184928894,5.54,-4.05,-3.42,7.66
18.58627700805664,5.5,-3.89,-3.5,7.59
18.594246864318848,5.44,-3.67,-3.36,7.37
18.604782819747925,5.2,-3.46,-3.1,6.97
18.61430788040161,4.99,-3.21,-2.98,6.63
18.62721300125122,4.84,-2.82,-2.85,6.28
18.636454820632935,4.72,-2.26,-2.78,5.92
18.64447784423828,4.54,-1.8,-3.0,5.73
18.654903888702393,4.43,-1.59,-3.29,5.74
18.664429903030396,4.52,-1.5,-3.27,5.77
18.67725896835327,4.62,-1.45,-2.79,5.58
18.686417818069458,4.61,-1.55,-2.19,5.33
18.694267749786377,4.73,-1.52,-1.73,5.26
18.704718828201294,4.81,-1.23,-1.31,5.13
18.714354038238525,4.94,-0.74,-1.01,5.09
18.72705602645874,4.88,-0.18,-0.84,4.95
18.736670970916748,4.73,0.28,-1.1,4.86
18.7445707321167,4.55,0.67,-1.51,4.84
18.754844903945923,4.36,0.99,-1.81,4.82
18.76448392868042,4.19,1.2,-2.0,4.79
18.7770037651062,3.97,1.2,-1.99,4.6
18.78656768798828,3.89,1.16,-1.73,4.41
18.79436492919922,3.87,1.27,-1.14,4.22
18.804889917373657,3.92,1.53,-0.52,4.24
18.814414978027344,3.86,2.05,-0.13,4.37
18.827199935913086,3.84,2.65,0.03,4.66
18.836618900299072,3.5,2.93,0.19,4.56
18.844648838043213,3.06,3.2,0.02,4.42
18.855008840560913,2.57,3.46,-0.1,4.31
18.86457586288452,2.23,3.68,-0.01,4.3
18.877152919769287,1.8,3.87,0.24,4.27
18.8865647315979,1.32,4.08,0.55,4.32
18.8942928314209,0.69,4.36,0.77,4.48
18.90491771697998,0.01,4.73,0.89,4.81
18.9144868850708,-0.52,5.12,1.0,5.24
18.927505016326904,-1.0,5.51,1.08,5.7
18.936688899993896,-1.34,5.89,1.28,6.17
18.944552898406982,-1.81,6.23,1.68,6.7
18.955055713653564,-2.23,6.61,2.13,7.29
18.96460771560669,-2.76,6.99,2.65,7.96
18.97724986076355,-3.22,7.44,3.05,8.66
18.986701011657715,-3.79,7.92,3.21,9.34
18.9944167137146,-4.35,8.34,3.1,9.9
19.00505495071411,-4.94,8.66,2.71,10.33
19.01453399658203,-5.39,8.8,2.39,10.59
19.027118682861328,-5.75,8.89,2.27,10.82
19.036666870117188,-6.02,8.95,2.52,11.07
19.04472303390503,-6.24,8.86,2.88,11.21
19.0551278591156,-6.61,8.66,3.0,11.29
19.064610958099365,-6.85,8.56,3.07,11.38
19.07692575454712,-6.99,8.46,3.22,11.43
19.086694717407227,-6.98,8.34,3.35,11.37
19.094550848007202,-6.92,8.18,3.5,11.27
19.10494899749756,-6.86,8.16,3.4,11.18
19.114402770996094,-6.86,8.09,3.09,11.04
19.12703275680542,-6.8,7.92,2.75,10.79
19.136830806732178,-6.64,7.83,2.6,10.59
19.144649028778076,-6.38,7.82,2.68,10.44
19.155017852783203,-6.1,7.67,2.69,10.16
19.1646888256073,-5.84,7.49,2.56,9.83
19.176764011383057,-5.58,7.33,2.5,9.54
19.18675184249878,-5.22,7.28,2.36,9.26
19.194700717926025,-4.91,7.2,2.05,8.95
19.20502996444702,-4.54,7.13,1.68,8.61
19.214643955230713,-4.28,7.03,1.26,8.32
19.22694969177246,-3.82,6.7,1.06,7.78
19.236873865127563,-3.34,6.46,1.21,7.37
19.244748830795288,-2.78,6.17,1.33,6.89
19.255130767822266,-2.17,5.93,1.41,6.47
19.264737844467163,-1.61,5.81,1.57,6.23
19.276817798614502,-1.07,5.79,1.69,6.12
19.286842823028564,-0.58,5.66,1.61,5.91
19.294740915298462,-0.08,5.41,1.43,5.59
19.305115699768066,0.43,5.13,1.48,5.35
19.314725875854492,0.94,4.86,1.61,5.2
19.326934814453125,1.36,4.48,1.56,4.93
19.336938858032227,1.67,4.22,1.39,4.74
19.34480094909668,2.0,3.99,1.28,4.64
19.355103969573975,2.3,3.62,1.33,4.49
19.364786863327026,2.64,3.44,1.44,4.56
19.376773834228516,2.94,3.46,1.48,4.77
19.386876821517944,3.24,3.54,1.13,4.93
19.394737720489502,3.52,3.48,0.56,4.98
19.405142784118652,3.79,3.38,-0.02,5.07
19.414700984954834,3.9,3.15,-0.46,5.03
19.42665195465088,3.95,2.8,-0.93,4.93
19.436946868896484,4.05,2.41,-1.65,4.99
19.44480800628662,4.2,2.05,-2.25,5.18
19.455238819122314,4.43,1.59,-2.67,5.41
19.464759826660156,4.88,0.99,-2.71,5.66
19.476686000823975,5.43,0.46,-2.28,5.9
19.486891746520996,5.72,-0.13,-1.74,5.98
19.494788885116577,5.96,-0.9,-1.51,6.21
19.50526475906372,6.14,-1.54,-1.44,6.49
19.514840841293335,6.21,-1.89,-1.33,6.62
19.526553869247437,6.37,-2.26,-1.28,6.87
19.537086963653564,6.51,-2.82,-1.55,7.26
19.54508686065674,6.52,-3.34,-1.76,7.53
19.55528688430786,6.61,-3.81,-1.86,7.85
19.564912796020508,6.68,-3.96,-1.87,7.98
19.576619863510132,6.64,-4.03,-1.8,7.97
19.586939811706543,6.73,-4.13,-1.86,8.11
19.594621896743774,6.76,-4.2,-1.86,8.17
19.605251789093018,6.81,-4.23,-1.81,8.21
19.615030765533447,6.87,-4.24,-1.78,8.26
19.626675844192505,6.71,-4.35,-1.98,8.23
19.63712501525879,6.69,-4.59,-2.23,8.41
19.645102977752686,6.67,-4.66,-2.37,8.47
19.65504503250122,6.59,-4.5,-2.37,8.32
19.665035724639893,6.62,-4.56,-2.34,8.37
19.676523685455322,6.7,-4.63,-2.34,8.47
19.68708896636963,6.69,-4.6,-2.1,8.38
19.694713830947876,6.54,-4.6,-2.06,8.25
19.70540475845337,6.44,-4.64,-2.15,8.22
19.714972972869873,6.31,-4.48,-2.13,8.02
19.726439952850342,6.13,-4.4,-2.23,7.86
19.73710298538208,6.13,-4.35,-2.33,7.86
19.74518871307373,6.05,-4.15,-2.17,7.65
19.755366802215576,6.01,-3.96,-2.0,7.47
19.76503276824951,6.08,-3.75,-1.84,7.37
19.776532888412476,6.06,-3.51,-1.72,7.21
19.787052869796753,5.91,-3.39,-1.69,7.01
19.794989824295044,5.71,-3.25,-1.68,6.78
19.805234909057617,5.59,-2.95,-1.62,6.52
19.815038919448853,5.49,-2.61,-1.55,6.27
19.826515913009644,5.24,-2.2,-1.74,5.94
19.837409019470215,5.01,-1.97,-1.98,5.73
19.845207691192627,4.78,-1.74,-2.15,5.52
19.855198860168457,4.6,-1.59,-2.14,5.31
19.865180015563965,4.34,-1.52,-2.1,5.05
19.876503944396973,4.3,-1.51,-2.05,4.99
19.887012004852295,4.3,-1.38,-1.95,4.91
19.895015716552734,4.27,-1.18,-1.58,4.7
19.905274868011475,4.29,-1.09,-1.27,4.6
19.91509485244751,4.39,-1.0,-1.17,4.65
19.926615715026855,4.37,-0.8,-1.1,4.57
19.937256813049316,4.27,-0.5,-1.2,4.46
19.945190906524658,4.08,-0.36,-1.36,4.31
19.95523500442505,4.03,-0.32,-1.51,4.31
19.965158939361572,3.87,-0.08,-1.3,4.08
19.97656774520874,3.71,0.13,-0.97,3.83
19.987308025360107,3.5,0.19,-0.77,3.58
19.994987964630127,3.41,0.33,-0.65,3.48
20.0052809715271,3.3,0.64,-0.32,3.37
20.015098810195923,3.18,0.96,-0.09,3.32
20.02637481689453,2.97,1.23,-0.1,3.21
20.03735589981079,2.59,1.56,-0.45,3.05
20.045217990875244,2.06,1.94,-0.95,2.98
20.055317878723145,1.79,2.28,-1.26,3.16
20.06513285636902,1.66,2.73,-1.36,3.47
20.076156854629517,1.53,3.14,-1.09,3.65
20.087244033813477,1.52,3.58,-0.75,3.96
20.095188856124878,1.25,3.95,-0.14,4.14
20.105238914489746,1.01,4.24,0.25,4.36
20.11508798599243,0.67,4.54,0.78,4.65
20.126060009002686,0.38,5.03,1.56,5.28
20.137370824813843,0.14,5.58,2.14,5.97
20.145256996154785,-0.28,6.05,2.31,6.48
20.15556287765503,-0.85,6.41,2.26,6.84
20.165281772613525,-1.35,6.68,2.56,7.28
20.176121711730957,-1.81,6.76,2.88,7.56
20.18729281425476,-2.3,6.7,3.31,7.81
20.194962978363037,-2.78,6.7,3.73,8.15
20.20539379119873,-3.42,6.75,3.93,8.52
20.215328693389893,-3.87,7.04,4.25,9.08
20.226131916046143,-4.1,7.62,4.42,9.71
20.237404823303223,-4.44,8.35,4.58,10.5
20.245332717895508,-5.04,9.08,4.59,11.35
20.255180835723877,-5.65,9.44,4.32,11.81
20.2652850151062,-5.96,9.64,3.71,11.92
20.276004791259766,-6.36,9.77,3.58,12.19
20.287559986114502,-6.63,9.71,3.31,12.21
20.295176029205322,-6.93,9.53,3.39,12.26
20.30543088912964,-6.9,9.22,3.75,12.11
20.3153338432312,-6.83,8.93,4.03,11.94
20.32609987258911,-6.76,8.75,4.12,11.79
20.33754587173462,-6.69,8.65,4.08,11.67
20.345321893692017,-6.6,8.52,3.76,11.41
20.355294704437256,-6.47,8.47,3.49,11.21
20.36534595489502,-6.41,8.48,3.41,11.16
20.375607013702393,-6.33,8.48,3.0,10.99
20.387571811676025,-6.25,8.49,2.4,10.81
20.39523696899414,-5.91,8.4,2.05,10.47
20.40540599822998,-5.35,8.34,2.22,10.15
20.41532802581787,-4.86,8.24,2.47,9.88
20.425869941711426,-4.21,7.95,2.34,9.29
20.43751883506775,-3.63,7.78,2.3,8.88
20.44527292251587,-3.03,7.49,2.26,8.38
20.455359935760498,-2.41,7.22,2.05,7.88
20.465309858322144,-1.95,6.94,1.81,7.43
20.47568988800049,-1.43,6.59,1.42,6.89
20.487642765045166,-0.91,6.35,1.13,6.51
20.495404720306396,-0.43,5.93,0.91,6.01
20.505377769470215,0.25,5.38,0.71,5.43
20.51544189453125,0.94,4.91,0.76,5.05
20.52562689781189,1.53,4.31,0.91,4.66
20.53742289543152,1.82,3.62,0.78,4.12
20.54544496536255,2.09,3.18,0.41,3.82
20.555463790893555,2.25,3.02,0.11,3.76
20.565375804901123,2.51,3.17,-0.29,4.05
20.575750827789307,2.9,3.45,-0.84,4.58
20.587647914886475,3.26,3.41,-1.31,4.89
20.595473766326904,3.62,3.03,-1.78,5.04
20.605556964874268,4.18,2.34,-2.01,5.19
20.615445852279663,4.79,1.65,-1.78,5.36
20.625741958618164,5.36,1.01,-1.52,5.66
20.637685775756836,5.92,0.43,-1.4,6.09
20.64558172225952,6.42,0.24,-1.22,6.53
20.65542984008789,6.81,0.07,-1.04,6.88
20.66546869277954,7.22,-0.42,-1.07,7.31
20.67568588256836,7.46,-0.93,-1.1,7.59
20.687767028808594,7.56,-1.39,-1.07,7.76
20.695446968078613,7.5,-1.94,-1.13,7.82
20.70564079284668,7.71,-2.48,-1.46,8.22
20.715487957000732,7.87,-2.85,-1.76,8.55
20.725644826889038,7.96,-3.09,-2.03,8.77
20.737730026245117,8.18,-3.3,-2.13,9.07
20.74534583091736,8.18,-3.45,-2.09,9.12
20.75554585456848,8.2,-3.86,-2.07,9.29
20.76546573638916,8.18,-4.46,-2.28,9.59
20.775660037994385,8.09,-4.93,-2.34,9.75
20.787796020507812,8.04,-5.26,-2.4,9.9
20.79542088508606,8.08,-5.21,-2.39,9.9
20.805635929107666,7.89,-5.15,-2.13,9.65
20.815614700317383,7.77,-5.4,-2.1,9.69
20.825703859329224,7.74,-5.38,-1.99,9.63
20.83768391609192,7.68,-5.05,-1.86,9.37
20.845658779144287,7.42,-4.75,-1.94,9.02
20.855559825897217,7.35,-4.62,-2.15,8.94
20.865474700927734,7.31,-4.5,-2.17,8.85
20.875712871551514,7.07,-4.31,-2.15,8.55
20.88781976699829,6.73,-4.32,-2.33,8.32
20.895789861679077,6.6,-4.19,-2.29,8.14
20.9059476852417,6.39,-3.96,-2.13,7.81
20.915674686431885,6.26,-3.92,-2.16,7.69
20.925623893737793,6.2,-3.9,-2.16,7.63
20.93769598007202,6.15,-3.67,-1.87,7.4
20.94572687149048,6.04,-3.65,-1.81,7.28
20.955671787261963,5.88,-3.81,-1.87,7.25
20.965636730194092,5.77,-3.8,-1.9,7.16
20.976099967956543,5.61,-3.75,-1.96,7.02
20.988006830215454,5.42,-3.76,-2.04,6.9
20.99572992324829,5.24,-3.64,-2.17,6.73
21.005849838256836,5.02,-3.33,-2.28,6.44
21.015607833862305,4.64,-3.02,-2.5,6.07
21.025776863098145,4.45,-2.73,-2.73,5.89
21.0378258228302,4.46,-2.11,-2.48,5.52
21.045825958251953,4.47,-1.62,-2.14,5.21
21.055778980255127,4.61,-1.38,-2.08,5.24
21.065677881240845,4.57,-1.05,-1.7,4.98
21.07574486732483,4.52,-0.73,-1.22,4.73
21.087791919708252,4.5,-0.52,-0.92,4.62
21.095733880996704,4.45,-0.19,-0.77,4.52
21.10579776763916,4.52,0.38,-0.68,4.58
21.11577582359314,4.28,0.88,-0.23,4.37
21.12571096420288,4.15,1.09,-0.03,4.29
21.13801884651184,4.14,1.47,0.15,4.39
21.145795822143555,3.91,1.96,0.3,4.38
21.155890941619873,3.74,2.43,0.04,4.46
21.165804862976074,3.55,2.87,-0.23,4.57
21.175967693328857,3.26,3.24,-0.32,4.6
21.187973976135254,2.92,3.56,-0.36,4.61
21.195788860321045,2.67,3.95,-0.3,4.77
21.205943822860718,2.46,4.44,-0.14,5.07
21.21576499938965,2.28,4.89,0.02,5.39
21.225849866867065,1.99,5.44,0.27,5.79
21.238118886947632,1.7,5.91,0.53,6.17
21.24597692489624,1.44,6.26,0.76,6.46
21.25584602355957,1.04,6.5,0.85,6.63
21.265867710113525,0.38,6.44,0.6,6.47
21.276052951812744,-0.3,6.14,0.38,6.15
21.287993907928467,-0.95,5.94,0.67,6.05
21.295912742614746,-1.41,5.93,0.96,6.17
21.306206703186035,-1.92,5.92,1.4,6.37
21.31615400314331,-2.32,6.03,1.91,6.73
21.326714992523193,-2.76,6.08,2.12,7.0
21.338056802749634,-3.08,6.07,1.97,7.08
21.345802783966064,-3.08,6.12,1.91,7.11
21.355886936187744,-3.23,6.08,2.1,7.19
21.36589288711548,-3.33,5.91,2.14,7.11
21.376027822494507,-3.56,5.89,2.34,7.26
21.3883159160614,-3.92,5.77,2.66,7.46
21.39592170715332,-4.43,5.65,2.92,7.75
21.406004905700684,-5.01,5.76,3.08,8.23
21.415870904922485,-5.63,6.09,3.09,8.85
21.42596983909607,-6.05,6.62,2.73,9.37
21.438146829605103,-6.26,6.85,2.32,9.56
21.445950031280518,-6.3,6.73,2.39,9.52
21.45569086074829,-6.1,6.73,2.6,9.44
21.466092824935913,-6.21,6.98,3.21,9.87
21.47615671157837,-6.54,7.05,3.68,10.29
21.488094806671143,-6.8,7.48,3.53,10.7
21.495969772338867,-6.91,7.81,3.36,10.95
21.505995750427246,-7.06,8.23,3.11,11.28
21.51598882675171,-7.13,8.49,2.77,11.42
21.52616286277771,-7.02,8.47,2.43,11.26
21.53816795349121,-6.8,8.43,2.48,11.11
21.545928955078125,-6.42,8.38,2.69,10.89
21.55606698989868,-6.13,8.47,2.99,10.87
21.566014766693115,-5.82,8.51,2.9,10.7
21.57602071762085,-5.38,8.43,2.56,10.32
21.588119983673096,-4.8,8.45,2.23,9.97
21.596020698547363,-4.08,8.23,2.24,9.45
21.606112003326416,-3.47,7.68,2.27,8.72
21.616097927093506,-2.97,7.08,2.28,8.0
21.6262629032135,-2.55,6.53,2.27,7.36
21.638110876083374,-2.04,6.07,2.07,6.72
21.646002769470215,-1.6,5.72,1.86,6.22
21.655993938446045,-1.14,5.41,1.56,5.74
21.665952682495117,-0.65,5.14,1.52,5.39
21.676023960113525,-0.15,4.78,1.41,4.98
21.688127994537354,0.25,4.4,1.22,4.57
21.695868015289307,0.64,4.03,1.02,4.2
21.70602798461914,1.04,3.77,0.75,3.98
21.715983867645264,1.36,3.44,0.52,3.73
21.72604990005493,1.76,3.0,0.31,3.49
21.73843002319336,2.1,2.49,0.16,3.26
21.74611473083496,2.21,2.05,0.15,3.01
21.756077766418457,2.29,1.77,0.0,2.89
21.76609992980957,2.41,1.68,-0.58,2.99
21.776304721832275,2.45,1.53,-1.17,3.11
21.78834295272827,2.73,1.43,-1.59,3.46
21.79609203338623,3.22,1.26,-1.64,3.82
21.806164741516113,3.8,1.0,-1.45,4.18
21.816165924072266,4.26,0.57,-1.27,4.48
21.826145887374878,4.73,0.18,-1.12,4.86
21.838244915008545,4.9,0.09,-1.02,5.0
21.84615182876587,5.04,0.08,-1.12,5.16
21.85604691505432,5.41,-0.35,-1.56,5.64
21.866193771362305,5.77,-0.99,-2.02,6.19
21.876346826553345,6.07,-1.57,-2.32,6.68
21.888463020324707,6.59,-2.45,-2.15,7.35
21.896206855773926,7.22,-3.08,-1.68,8.02
21.90625286102295,7.71,-3.29,-0.75,8.41
21.91614294052124,7.92,-3.75,-0.09,8.76
21.92637586593628,8.0,-3.94,-0.25,8.92
21.938296794891357,7.99,-4.03,-0.58,8.96
21.946080684661865,8.0,-4.13,-1.04,9.06
21.95617985725403,7.79,-4.34,-1.41,9.02
21.966232776641846,7.7,-4.55,-1.65,9.09
21.97667169570923,7.62,-4.74,-1.64,9.12
21.98843288421631,7.65,-4.94,-1.58,9.24
21.996164798736572,7.75,-5.02,-1.46,9.34
22.006342887878418,7.84,-5.03,-1.31,9.4
22.016257762908936,7.82,-5.06,-1.16,9.38
22.026494026184082,7.68,-4.9,-1.21,9.19
22.03831195831299,7.67,-4.5,-1.19,8.97
22.046327829360962,7.68,-4.07,-1.11,8.76
22.056296825408936,7.57,-3.76,-1.18,8.53
22.066319942474365,7.23,-3.68,-1.45,8.24
22.07639789581299,7.03,-3.68,-1.71,8.11
22.088422775268555,6.85,-3.74,-1.69,7.98
22.09622573852539,6.68,-3.8,-1.6,7.84
22.106313705444336,6.49,-3.88,-1.56,7.72
22.116293907165527,6.42,-3.91,-1.53,7.67
22.126349925994873,6.45,-3.83,-1.49,7.64
22.13833475112915,6.58,-3.67,-1.43,7.66
22.146341800689697,6.68,-3.46,-1.41,7.65
22.156373977661133,6.75,-3.28,-1.43,7.63
22.166887760162354,6.6,-3.21,-1.56,7.5
22.174994945526123,6.34,-3.09,-2.02,7.33
22.194264888763428,6.07,-3.04,-2.37,7.19
22.19819974899292,5.82,-2.87,-2.49,6.95
22.20635986328125,5.55,-2.44,-2.5,6.55
22.216298818588257,5.35,-1.94,-2.42,6.18
22.22640371322632,5.22,-1.64,-2.28,5.92
22.23849582672119,5.18,-1.29,-2.2,5.77
22.2464919090271,5.23,-0.94,-1.9,5.64
22.25650191307068,5.19,-0.81,-1.66,5.5
22.266754865646362,5.05,-0.75,-1.73,5.39
22.275020837783813,4.98,-0.63,-1.84,5.34
22.294431686401367,5.03,-0.27,-1.54,5.26
22.29837989807129,5.01,0.24,-1.03,5.12
22.306511878967285,4.9,0.57,-0.85,5.0
22.316893815994263,4.71,0.66,-0.9,4.84
22.325166702270508,4.49,0.8,-0.98,4.66
22.344266891479492,4.26,1.04,-0.95,4.48
22.348121881484985,3.99,1.38,-0.91,4.31
22.356364727020264,3.82,1.77,-0.82,4.28
22.366872787475586,3.6,2.08,-0.63,4.2
22.375078916549683,3.32,2.47,-0.43,4.16
22.3942608833313,3.1,3.06,-0.24,4.36
22.398144721984863,2.96,3.53,-0.19,4.61
22.40645694732666,2.72,3.9,-0.24,4.76
22.41680884361267,2.39,4.22,-0.29,4.85
22.425113916397095,1.96,4.48,-0.39,4.9
22.444692850112915,1.49,4.62,-0.72,4.9
22.448657989501953,1.02,4.88,-1.26,5.14
22.456453800201416,0.65,5.08,-1.41,5.31
22.4669668674469,0.35,5.19,-1.24,5.34
22.475111961364746,0.05,5.43,-0.73,5.47
22.49451971054077,-0.44,5.71,-0.06,5.72
22.498485803604126,-1.03,5.72,0.29,5.81
22.506556034088135,-1.67,5.88,0.71,6.15
22.516923904418945,-2.29,6.03,0.87,6.5
22.525259017944336,-2.8,6.4,0.93,7.04
22.54442071914673,-3.3,6.83,1.18,7.67
22.548332691192627,-3.82,6.91,1.3,8.0
22.556641817092896,-4.21,6.92,1.46,8.23
22.566924810409546,-4.5,7.16,1.78,8.64
22.57511591911316,-4.92,7.31,2.12,9.06
22.594528913497925,-5.19,7.54,2.25,9.42
22.5984787940979,-5.43,7.89,2.58,9.91
22.606565952301025,-5.6,8.16,2.75,10.27
22.616973876953125,-5.93,8.35,2.74,10.6
22.625281810760498,-6.13,8.45,2.72,10.78
22.644474029541016,-6.32,8.55,2.73,10.97
22.64845085144043,-6.39,8.41,2.75,10.91
22.656571865081787,-6.32,8.3,2.71,10.77
22.666956901550293,-6.24,8.39,2.79,10.82
22.675296783447266,-6.18,8.43,2.68,10.79
22.694546699523926,-5.94,8.71,2.57,10.85
22.69850778579712,-5.91,9.03,2.65,11.11
22.706652879714966,-5.85,9.05,2.4,11.04
22.716928005218506,-5.8,8.92,2.15,10.85
22.725459814071655,-5.69,8.71,1.89,10.57
22.74465584754944,-5.49,8.35,1.72,10.14
22.748610973358154,-5.27,7.94,1.53,9.65
22.756714820861816,-5.0,7.54,1.36,9.14
22.76706290245056,-4.64,7.23,1.17,8.67
22.775367736816406,-4.22,6.93,1.06,8.18
22.794407844543457,-3.85,6.62,1.01,7.72
22.798362731933594,-3.51,6.33,0.79,7.28
22.806702852249146,-3.16,6.11,0.6,6.9
22.81705904006958,-2.8,5.87,0.49,6.52
22.825445890426636,-2.53,5.56,0.44,6.12
22.844417810440063,-2.23,5.29,0.48,5.76
22.84836769104004,-1.8,5.19,0.67,5.53
22.856757879257202,-1.45,5.07,0.74,5.32
22.86702585220337,-1.1,5.03,0.65,5.18
22.875409841537476,-0.78,5.08,0.53,5.16
22.894186973571777,-0.54,4.99,0.32,5.02
22.89811086654663,-0.28,4.76,0.09,4.76
22.90677499771118,0.05,4.69,0.04,4.69
22.917272806167603,0.44,4.76,0.05,4.78
22.925432920455933,0.76,4.81,0.02,4.86
22.9443097114563,1.06,4.85,-0.09,4.96
22.948272705078125,1.43,4.92,-0.21,5.12
22.956690788269043,1.58,4.63,-0.5,4.91
22.967216968536377,1.93,4.22,-0.69,4.69
22.975401878356934,2.34,3.89,-0.59,4.57
22.99464988708496,2.84,3.6,-0.47,4.6
22.99857187271118,3.34,3.3,-0.3,4.7
23.006747722625732,3.74,2.93,-0.12,4.75
23.017278909683228,4.09,2.55,-0.11,4.82
23.0254807472229,4.44,2.21,-0.27,4.96
23.044282913208008,4.75,1.91,-0.42,5.13
23.04822587966919,5.0,1.55,-0.43,5.25
23.05684995651245,5.24,1.16,-0.46,5.38
23.067351818084717,5.49,0.85,-0.38,5.56
23.07546377182007,5.81,0.6,-0.31,5.84
23.094133853912354,5.98,0.43,-0.33,6.0
23.097887992858887,5.98,0.31,-0.64,6.02
23.106828689575195,5.99,0.16,-1.01,6.07
23.117228031158447,6.02,-0.09,-1.15,6.12
23.12555503845215,6.0,-0.54,-1.17,6.13
23.143974781036377,5.86,-1.03,-1.15,6.05
23.14792490005493,5.85,-1.48,-1.13,6.13
23.156933784484863,5.97,-1.83,-1.12,6.34
23.16739273071289,6.03,-2.02,-1.08,6.45
23.175530910491943,6.08,-2.27,-1.17,6.59
23.19387674331665,6.02,-2.59,-1.26,6.67
23.19781494140625,5.94,-2.97,-1.46,6.79
23.206984996795654,5.96,-3.26,-1.77,7.02
23.216954708099365,5.96,-3.52,-1.86,7.16
23.225571870803833,6.11,-3.88,-1.89,7.48
23.244086742401123,6.37,-4.19,-1.75,7.82
23.248069763183594,6.61,-4.26,-1.27,7.96
23.257108688354492,6.78,-4.28,-0.93,8.07
23.2673978805542,6.91,-4.52,-0.96,8.31
23.27560591697693,6.89,-4.61,-1.03,8.35
23.293784856796265,6.91,-4.61,-1.29,8.4
23.297683715820312,7.01,-4.73,-1.56,8.59
23.30701494216919,7.15,-4.8,-1.66,8.77
23.317315816879272,7.23,-4.91,-1.62,8.88
23.325668811798096,7.35,-5.05,-1.56,9.05
23.34397792816162,7.46,-5.25,-1.5,9.24
23.347959995269775,7.55,-5.39,-1.35,9.37
23.35699987411499,7.58,-5.51,-1.27,9.45
23.367206811904907,7.58,-5.52,-1.13,9.44
23.375634908676147,7.7,-5.24,-1.17,9.38
23.393865823745728,7.68,-4.85,-1.04,9.14
23.397806882858276,7.78,-4.55,-1.06,9.07
23.406975746154785,7.59,-4.32,-1.21,8.81
23.417349815368652,7.53,-4.2,-1.54,8.75
23.42566990852356,7.32,-4.12,-1.73,8.57
23.443830966949463,7.15,-4.02,-1.81,8.39
23.447795867919922,6.85,-3.98,-1.79,8.12
23.457036018371582,6.74,-3.87,-1.83,7.98
23.467593908309937,6.54,-3.63,-1.61,7.65
23.475718021392822,6.37,-3.09,-1.39,7.21
23.493804931640625,6.36,-2.69,-1.34,7.03
23.497751712799072,6.43,-2.3,-1.51,6.99
23.507147789001465,6.03,-1.78,-1.33,6.42
23.51752281188965,5.36,-1.46,-1.46,5.74
23.525781869888306,4.82,-0.8,-1.71,5.17
23.543789863586426,4.29,-0.11,-2.06,4.76
23.547778844833374,3.94,0.77,-2.18,4.56
23.557097911834717,3.44,2.14,-1.88,4.46
23.56758403778076,2.93,2.74,-1.62,4.32
23.575724840164185,2.57,3.42,-1.36,4.48
23.5937557220459,2.2,4.39,-0.53,4.93
23.59769082069397,1.77,5.33,-0.16,5.61
23.607232809066772,1.58,6.14,0.08,6.34
23.617681980133057,1.14,7.13,0.63,7.24
23.625849723815918,0.36,7.26,0.95,7.33
23.643781900405884,-0.17,6.89,0.76,6.93
23.64778184890747,-0.59,7.03,1.0,7.12
23.657227993011475,-0.96,7.2,1.7,7.46
23.667695999145508,-1.06,7.31,2.28,7.73
23.675806999206543,-0.86,7.8,3.11,8.44
23.69375991821289,-0.87,8.52,3.97,9.43
23.69773769378662,-0.93,9.22,4.42,10.26
23.70734691619873,-1.55,10.08,4.86,11.29
23.717549800872803,-2.18,10.7,4.81,11.93
23.726012706756592,-2.73,11.22,4.5,12.39
23.743626832962036,-3.31,11.74,4.4,12.96
23.747593879699707,-3.26,12.05,4.23,13.18
23.757178783416748,-2.9,12.26,3.9,13.18
23.767708778381348,-2.42,12.18,4.0,13.04
23.775858879089355,-2.0,11.89,4.16,12.75
23.79354190826416,-1.64,11.52,4.84,12.6
23.797648906707764,-1.55,10.98,5.85,12.53
23.807315826416016,-1.13,10.39,6.48,12.29
23.81767177581787,-0.98,9.4,6.79,11.63
23.82591986656189,-0.65,8.49,6.87,10.94
23.843673706054688,-0.47,7.78,6.8,10.34
23.84760880470276,-0.68,6.79,6.2,9.21
23.857098817825317,-0.68,5.5,5.35,7.7
23.867668867111206,-0.8,4.43,4.77,6.55
23.875889778137207,-0.88,3.46,3.76,5.18
23.89333987236023,-1.21,2.29,2.57,3.64
23.89746379852295,-1.44,1.13,1.61,2.43
23.90734100341797,-1.71,0.16,0.66,1.83
23.91768980026245,-2.17,-0.76,-0.14,2.3
23.926071882247925,-2.25,-1.59,-0.66,2.83
23.943480968475342,-2.09,-2.38,-1.44,3.47
23.9475998878479,-1.91,-2.71,-2.16,3.95
23.957276821136475,-1.93,-2.51,-2.45,4.0
23.96762180328369,-2.13,-2.36,-2.64,4.13
23.975900888442993,-2.04,-2.37,-2.78,4.18
23.99400782585144,-1.5,-2.33,-2.66,3.84
23.99797773361206,-1.12,-2.37,-2.93,3.93
24.007487773895264,-0.95,-2.5,-3.27,4.22
24.017839908599854,-0.38,-2.65,-3.03,4.04
24.02603578567505,-0.14,-2.68,-2.7,3.8
24.043492794036865,-0.18,-2.48,-3.0,3.89
24.047663688659668,-0.12,-2.23,-3.11,3.82
24.05732774734497,-0.06,-2.2,-3.13,3.82
24.067807912826538,0.05,-2.28,-3.45,4.13
24.076217889785767,-0.03,-2.16,-3.4,4.02
24.09324598312378,0.15,-2.15,-3.24,3.89
24.097367763519287,0.49,-2.22,-3.02,3.78
24.10747790336609,0.69,-1.67,-2.61,3.17
24.1178560256958,0.79,-0.25,-2.28,2.42
24.12604570388794,1.2,0.2,-2.26,2.56
24.14317488670349,1.53,0.41,-2.53,2.98
24.14749574661255,1.87,-0.07,-2.88,3.43
24.157517910003662,1.73,-0.49,-2.39,2.99
24.167888879776,1.17,-0.56,-2.05,2.42
24.17619800567627,0.99,-0.54,-2.07,2.35
24.193116903305054,0.72,-0.53,-1.73,1.94
24.199442863464355,0.6,-0.55,-1.2,1.45
24.207440853118896,0.77,-0.75,-0.89,1.39
24.217777729034424,1.22,-1.27,-0.59,1.85
24.22614288330078,1.28,-1.49,-0.48,2.02
24.24310302734375,1.02,-1.34,-0.54,1.76
24.24746084213257,0.83,-1.18,-1.0,1.75
24.257474899291992,0.53,-0.95,-1.6,1.93
24.26804280281067,0.29,-0.55,-2.01,2.1
24.27619481086731,0.41,-0.18,-1.74,1.79
24.29295778274536,1.08,-0.23,-1.41,1.79
24.29755687713623,1.35,-0.24,-1.21,1.82
24.30784583091736,1.15,-0.34,-0.96,1.53
24.318046808242798,1.22,-0.62,-1.14,1.78
24.328125,0.82,-0.65,-1.06,1.48
24.343486785888672,0.68,-0.35,-0.84,1.13
24.34763479232788,0.76,-0.54,-2.06,2.26
24.357648849487305,0.78,-0.08,-2.44,2.56
24.36790370941162,0.79,0.56,-1.54,1.81
24.376152992248535,0.81,0.87,-1.09,1.61
24.39286470413208,1.07,0.55,-0.9,1.5
24.39749574661255,0.89,0.1,-0.17,0.91
