time,ax,ay,az,atotal
0.004967927932739258,0.61,0.34,-0.65,0.95
0.01851201057434082,0.22,0.22,-0.47,0.56
0.025654077529907227,-0.17,0.03,-0.55,0.57
0.03640913963317871,-0.48,-0.18,-0.68,0.85
0.046356916427612305,-0.73,-0.16,-0.69,1.01
0.055017948150634766,-0.69,-0.22,-0.76,1.04
0.06750988960266113,-0.5,-0.39,-0.67,0.92
0.07564902305603027,-0.12,-0.72,-0.6,0.94
0.08652615547180176,0.47,-1.27,-0.84,1.59
0.096343994140625,0.85,-1.44,-1.25,2.08
0.10510087013244629,0.87,-1.46,-1.71,2.41
0.1175990104675293,0.25,-1.63,-2.33,2.85
0.1258080005645752,-0.08,-1.37,-2.87,3.18
0.1365668773651123,-0.23,-1.11,-3.4,3.58
0.14649701118469238,-0.75,-0.74,-3.75,3.89
0.15520310401916504,-1.23,-0.81,-3.89,4.15
0.16764092445373535,-1.76,-0.53,-3.7,4.13
0.17583203315734863,-1.9,-0.47,-3.46,3.97
0.18648886680603027,-1.5,-0.6,-3.15,3.54
0.19651198387145996,-0.91,-0.58,-2.74,2.94
0.20522093772888184,-0.29,-0.38,-2.28,2.32
0.21788501739501953,-0.08,0.03,-1.84,1.84
0.2258150577545166,0.07,0.18,-1.35,1.36
0.23641395568847656,0.22,-0.25,-0.92,0.97
0.24640917778015137,-0.12,-0.68,-0.51,0.85
0.25522804260253906,-0.54,-1.06,-0.29,1.22
0.2677760124206543,-0.52,-1.17,-0.47,1.36
0.27573394775390625,-0.24,-1.02,-0.86,1.35
0.28637003898620605,-0.15,-0.84,-0.96,1.28
0.2973949909210205,-0.49,-0.74,-0.94,1.29
0.3051588535308838,-0.84,-0.53,-0.93,1.36
0.31772685050964355,-1.02,-0.4,-0.56,1.23
0.3258640766143799,-0.43,-0.49,0.04,0.65
0.3364279270172119,0.15,-0.4,0.39,0.57
0.3465769290924072,0.5,0.05,0.56,0.75
0.35530591011047363,1.35,0.17,0.81,1.58
0.36767005920410156,2.12,0.17,1.1,2.39
0.3758351802825928,2.41,0.42,1.87,3.07
0.38654398918151855,2.16,0.84,3.24,3.98
0.3966958522796631,2.07,1.28,4.66,5.25
0.4053161144256592,2.35,1.81,6.27,6.93
0.4177420139312744,3.04,1.56,7.04,7.82
0.4259300231933594,2.65,0.71,6.82,7.35
0.43651294708251953,2.17,0.3,5.58,5.99
0.44657301902770996,3.29,0.76,3.68,4.99
0.4553091526031494,5.12,1.15,2.96,6.02
0.4677870273590088,6.96,1.38,3.26,7.8
0.4759838581085205,8.37,1.5,2.92,8.99
0.4866049289703369,9.14,1.73,1.97,9.5
0.49665284156799316,8.56,2.6,1.53,9.07
0.5054099559783936,7.84,4.12,1.63,9.0
0.5179579257965088,6.46,5.86,2.25,9.0
0.5260059833526611,4.29,7.45,2.82,9.04
0.5365540981292725,2.84,8.52,3.13,9.51
0.5467069149017334,1.87,8.95,3.99,9.97
0.5554070472717285,1.02,8.34,5.06,9.8
0.5678460597991943,1.03,7.46,5.93,9.58
0.5759861469268799,2.15,7.32,5.97,9.68
0.5867431163787842,1.41,6.67,5.77,8.93
0.5967519283294678,-0.27,6.48,4.37,7.82
0.6054229736328125,-1.55,7.22,2.86,7.91
0.6179149150848389,-3.66,8.24,2.13,9.26
0.6260950565338135,-5.17,9.7,2.69,11.31
0.6366689205169678,-6.16,9.63,3.06,11.83
0.6467249393463135,-7.37,8.48,2.23,11.45
0.655379056930542,-7.93,7.7,1.59,11.16
0.6678719520568848,-8.19,6.75,0.99,10.65
0.6760818958282471,-7.48,6.32,-0.2,9.79
0.6867330074310303,-6.96,5.49,-0.51,8.87
0.6967339515686035,-7.0,4.14,-1.4,8.25
0.7054359912872314,-6.84,2.73,-2.16,7.67
0.7178409099578857,-6.48,1.56,-2.33,7.06
0.7260479927062988,-5.57,0.82,-2.4,6.12
0.7365870475769043,-4.94,-0.12,-2.64,5.6
0.7466599941253662,-4.59,-1.12,-2.48,5.33
0.7553520202636719,-4.16,-1.92,-2.04,5.01
0.7678580284118652,-3.93,-2.61,-1.68,5.0
0.7758300304412842,-3.93,-3.13,-1.37,5.2
0.7867238521575928,-4.2,-3.72,-0.67,5.65
0.7967889308929443,-4.1,-3.8,-0.75,5.64
0.8055078983306885,-4.97,-4.45,-1.27,6.79
0.818011999130249,-5.22,-5.12,-1.68,7.5
0.8260438442230225,-4.81,-5.39,-1.68,7.41
0.8368730545043945,-4.51,-5.83,-1.3,7.48
0.8468320369720459,-4.35,-6.11,-1.14,7.58
0.8557319641113281,-4.78,-6.43,-0.55,8.03
0.8680069446563721,-4.31,-6.61,-0.56,7.91
0.8762459754943848,-5.04,-6.88,-0.4,8.53
0.8869049549102783,-5.72,-6.91,-0.38,8.97
0.8968088626861572,-6.07,-6.76,-0.44,9.09
0.9055910110473633,-6.11,-6.79,-0.21,9.13
0.9181129932403564,-5.98,-6.36,-0.66,8.75
0.9262559413909912,-5.36,-5.83,-1.24,8.01
0.9369239807128906,-5.27,-5.68,-1.8,7.95
0.9469389915466309,-5.2,-5.62,-2.16,7.95
0.9556591510772705,-5.13,-5.38,-2.13,7.73
0.9681718349456787,-4.96,-5.09,-1.67,7.3
0.976315975189209,-4.75,-4.91,-1.24,6.94
0.9870541095733643,-4.98,-4.8,-0.76,6.95
0.9970049858093262,-5.35,-4.54,-0.15,7.01
1.0055530071258545,-5.33,-4.03,-0.26,6.68
1.018237829208374,-4.94,-3.36,-0.13,5.97
1.0263290405273438,-4.74,-2.76,0.14,5.48
1.0370519161224365,-4.4,-2.19,-0.03,4.91
1.047027826309204,-4.64,-2.06,-0.09,5.07
1.0555059909820557,-4.85,-1.71,-0.09,5.14
1.0685160160064697,-4.59,-1.23,0.15,4.75
1.0764620304107666,-4.2,-0.59,0.43,4.26
1.087083101272583,-4.09,0.29,0.59,4.14
1.097015142440796,-4.39,1.22,0.46,4.57
1.105816125869751,-4.35,2.38,0.14,4.96
1.118407964706421,-4.13,3.0,0.41,5.12
1.126396894454956,-4.03,3.86,0.4,5.59
1.1370508670806885,-4.16,5.01,0.76,6.55
1.1470458507537842,-3.93,5.98,1.16,7.24
1.1564910411834717,-3.63,6.36,0.2,7.32
1.1683039665222168,-3.21,6.5,-0.51,7.26
1.1763529777526855,-2.47,6.36,-0.64,6.85
1.1870381832122803,-1.42,6.24,-0.4,6.41
1.1970641613006592,-1.15,6.29,-0.08,6.39
1.2059919834136963,-1.37,6.83,0.13,6.96
1.2180500030517578,-1.74,7.15,0.06,7.35
1.2265188694000244,-1.39,6.96,-0.64,7.12
1.2371540069580078,-0.42,6.6,-0.99,6.68
1.2470648288726807,0.56,6.34,-0.59,6.39
1.255817174911499,1.05,5.74,-0.19,5.83
1.2683188915252686,1.62,5.26,0.65,5.54
1.276360034942627,2.37,4.56,1.69,5.4
1.287186861038208,2.99,3.33,2.18,4.97
1.2969980239868164,3.36,2.58,2.61,4.97
1.3058860301971436,3.41,2.09,3.03,5.01
1.3183369636535645,3.56,1.57,2.94,4.87
1.3265399932861328,4.22,1.3,2.98,5.32
1.33713698387146,5.04,1.09,2.5,5.73
1.3472011089324951,5.44,1.06,1.73,5.8
1.3557319641113281,5.76,1.61,1.35,6.13
1.3683600425720215,5.93,2.01,0.78,6.3
1.376338005065918,6.06,2.05,0.13,6.39
1.3871040344238281,6.61,1.95,-0.07,6.89
1.3971641063690186,7.3,1.67,-0.17,7.49
1.4059879779815674,7.45,1.37,-0.13,7.57
1.418328046798706,6.98,1.54,0.22,7.15
1.4264800548553467,6.36,1.88,0.83,6.68
1.4371111392974854,5.99,1.99,1.49,6.48
1.4471180438995361,6.42,1.98,1.96,6.99
1.4557530879974365,7.02,1.65,1.75,7.42
1.4682018756866455,7.27,1.15,1.34,7.48
1.4764740467071533,7.59,0.73,1.28,7.73
1.487239122390747,7.82,0.63,1.27,7.94
1.4971590042114258,7.47,0.79,1.23,7.61
1.505875825881958,7.07,1.02,1.39,7.27
1.5184040069580078,7.21,1.41,1.91,7.59
1.52652907371521,7.21,1.94,2.39,7.83
1.5372450351715088,6.49,2.53,2.49,7.39
1.5471718311309814,5.67,3.25,2.56,7.01
1.5558159351348877,5.56,4.03,2.95,7.47
1.5685441493988037,5.59,4.89,3.1,8.04
1.576462984085083,5.01,5.71,3.0,8.16
1.5871899127960205,4.2,6.34,2.58,8.03
1.597100019454956,3.35,6.5,1.97,7.57
1.6060421466827393,2.52,6.32,1.52,6.97
1.6185581684112549,0.5,6.9,1.11,7.0
1.6267540454864502,-1.12,7.0,1.24,7.19
1.6373939514160156,-1.36,6.85,1.23,7.09
1.647387981414795,-1.49,6.6,0.77,6.8
1.6560719013214111,-1.85,6.3,-0.13,6.56
1.6683690547943115,-2.9,6.07,-0.42,6.74
1.6766059398651123,-3.82,5.9,-0.04,7.02
1.6873128414154053,-4.39,5.49,0.61,7.05
1.6972339153289795,-4.74,4.73,1.26,6.81
1.7059049606323242,-5.18,3.72,1.58,6.57
1.7184679508209229,-5.84,2.55,1.6,6.57
1.7267239093780518,-6.78,1.62,1.58,7.14
1.7373411655426025,-7.56,0.69,1.56,7.75
1.7473540306091309,-7.89,-0.39,1.35,8.01
1.756026029586792,-7.55,-1.41,0.91,7.73
1.7686619758605957,-6.93,-2.1,0.48,7.25
1.7767870426177979,-6.73,-2.61,0.23,7.22
1.7876019477844238,-7.1,-2.88,-0.06,7.66
1.7974820137023926,-7.44,-3.13,-0.29,8.07
1.8061659336090088,-7.65,-3.51,-0.33,8.42
1.8185830116271973,-7.66,-3.66,-0.18,8.49
1.826859951019287,-7.51,-3.72,0.12,8.38
1.8373589515686035,-7.35,-4.1,0.11,8.41
1.847426176071167,-7.21,-4.56,-0.4,8.54
1.8560919761657715,-7.26,-4.92,-0.92,8.81
1.868623971939087,-6.98,-5.14,-1.45,8.78
1.8768508434295654,-6.19,-5.41,-1.82,8.42
1.8875200748443604,-5.09,-5.55,-2.12,7.82
1.897463083267212,-4.22,-5.77,-2.5,7.57
1.9062390327453613,-4.02,-6.18,-2.86,7.9
1.9187569618225098,-4.53,-6.48,-3.05,8.47
1.9268910884857178,-5.14,-6.39,-3.09,8.76
1.937535047531128,-5.29,-6.17,-2.81,8.59
1.9475181102752686,-5.21,-5.92,-2.47,8.26
1.9563038349151611,-5.17,-5.69,-2.52,8.09
1.9687378406524658,-5.37,-5.61,-2.86,8.27
1.9768610000610352,-5.14,-5.6,-3.16,8.23
1.987612009048462,-4.19,-5.55,-3.46,7.76
1.9975011348724365,-3.53,-5.4,-3.62,7.39
2.0061540603637695,-3.43,-5.03,-3.73,7.13
2.018659830093384,-3.6,-4.29,-3.93,6.84
2.026991128921509,-3.98,-3.3,-3.55,6.27
2.037658929824829,-4.12,-2.12,-2.73,5.37
2.0475850105285645,-3.82,-0.88,-1.83,4.32
2.0562210083007812,-3.46,0.43,-0.39,3.5
2.0687601566314697,-3.54,2.17,1.44,4.39
2.0768778324127197,-3.63,3.98,3.21,6.27
2.087777853012085,-3.39,5.17,4.41,7.59
2.09771990776062,-2.91,5.96,4.88,8.23
2.10636305809021,-2.16,6.31,4.76,8.19
2.11896014213562,-0.82,6.07,4.67,7.7
2.127034902572632,1.11,5.75,4.87,7.61
2.1378209590911865,2.69,5.2,4.87,7.61
2.147857904434204,3.85,4.47,4.4,7.35
2.156468152999878,4.45,3.46,4.04,6.93
2.169142961502075,4.1,1.76,4.59,6.4
2.177151918411255,2.97,-0.52,6.0,6.71
2.1879069805145264,1.48,-1.0,6.79,7.02
2.197809934616089,0.16,0.76,7.37,7.41
2.2063920497894287,-0.53,2.73,8.55,8.99
2.2191619873046875,-0.6,3.75,8.9,9.67
2.227085828781128,0.45,3.99,7.6,8.59
2.237632989883423,1.83,3.83,5.33,6.81
2.247684955596924,2.95,3.71,3.48,5.88
2.2563798427581787,3.63,3.7,1.81,5.49
2.2688491344451904,3.2,4.02,0.73,5.18
2.277052164077759,2.26,4.2,-0.17,4.77
2.287773847579956,1.77,4.03,-1.05,4.52
2.2977590560913086,1.17,3.96,-1.36,4.34
2.3064589500427246,0.28,3.92,-1.04,4.06
2.3192689418792725,-0.43,3.42,-0.64,3.5
2.327169179916382,-0.55,2.4,-0.66,2.54
2.337759017944336,0.06,1.97,-0.44,2.01
2.3477909564971924,0.97,1.67,-0.79,2.08
2.356482982635498,1.4,1.75,-0.78,2.37
2.368824005126953,1.38,1.68,-0.39,2.2
2.3771231174468994,0.75,1.38,-0.37,1.61
2.3899669647216797,0.41,1.33,-0.32,1.42
2.3977091312408447,0.09,1.12,-1.09,1.56
2.40647292137146,-0.69,1.02,-1.3,1.79
2.418931007385254,-1.19,0.35,-1.4,1.87
2.427199125289917,-1.28,0.02,-1.38,1.88
2.437770128250122,-0.9,0.1,-0.89,1.26
2.4476850032806396,-0.37,0.18,-0.82,0.91
2.456486940383911,-0.02,0.1,-1.18,1.18
2.469062089920044,0.04,0.03,-1.54,1.54
2.477238893508911,0.22,-0.09,-1.84,1.85
2.4879209995269775,0.38,-0.17,-1.82,1.86
2.4978811740875244,0.46,-0.32,-1.66,1.75
2.5064828395843506,0.43,-0.34,-1.4,1.5
2.518963098526001,0.18,-0.51,-0.96,1.1
2.5271871089935303,0.16,-0.6,-0.63,0.88
2.5378291606903076,0.13,-0.48,-0.58,0.76
2.547917127609253,0.04,-0.41,-0.61,0.73
2.5565569400787354,-0.31,-0.17,-0.53,0.63
2.5690269470214844,-1.66,-0.03,-0.42,1.71
2.577246904373169,-1.1,0.07,-0.21,1.12
2.587938070297241,-0.46,0.17,-0.02,0.49
2.597959041595459,0.08,-0.02,-0.2,0.21
2.606580972671509,0.38,0.03,-0.05,0.38
2.6189379692077637,0.31,0.04,-0.02,0.31
2.6274449825286865,0.1,0.03,0.11,0.15
2.63805890083313,0.05,-0.07,0.4,0.4
2.6479780673980713,0.16,-0.14,0.35,0.4
2.6566970348358154,0.0,-0.05,0.1,0.11
2.6689300537109375,-0.35,0.0,-0.11,0.36
2.677284002304077,-0.65,0.06,-0.21,0.68
2.688062906265259,-0.81,0.08,-0.18,0.83
2.6980960369110107,-0.62,-0.12,0.05,0.63
2.7066738605499268,-0.18,-0.32,0.32,0.48
2.719297170639038,0.31,-0.47,0.31,0.64
2.72761607170105,0.67,-0.48,0.12,0.83
2.7383129596710205,0.62,-0.37,-0.03,0.72
2.7481658458709717,0.27,-0.05,-0.16,0.31
2.7566709518432617,-0.22,0.1,-0.44,0.5
2.770259141921997,-0.64,0.12,-1.02,1.21
2.7773070335388184,-0.86,0.3,-1.79,2.0
2.788067102432251,-0.45,0.49,-0.42,0.78
2.7981040477752686,-0.11,0.07,-0.24,0.27
2.8067219257354736,0.11,-0.06,0.27,0.29
2.819653034210205,0.13,-0.15,0.34,0.39
2.8274691104888916,-0.18,-0.21,0.04,0.27
2.838165044784546,-0.37,-0.03,0.08,0.37
2.850926160812378,-0.36,0.13,0.06,0.38
2.8567769527435303,-0.3,0.19,0.0,0.35
2.8691539764404297,-0.01,0.18,-0.28,0.33
2.877472162246704,0.22,0.17,-0.47,0.54
2.888201951980591,0.21,0.19,-0.3,0.41
2.9001660346984863,-0.06,0.2,-0.13,0.24
2.906903028488159,-0.5,0.07,-0.08,0.51
2.919142961502075,-0.6,-0.06,0.04,0.6
2.9274470806121826,-0.33,-0.06,0.07,0.34
2.9381370544433594,-0.1,-0.09,0.02,0.13
2.9504380226135254,0.03,-0.17,0.08,0.19
2.956838846206665,0.08,-0.16,0.06,0.18
2.9690568447113037,0.08,-0.19,-0.03,0.2
2.9775798320770264,0.06,-0.24,-0.09,0.26
2.9881808757781982,0.12,-0.14,-0.12,0.22
2.9998018741607666,0.19,-0.01,-0.2,0.27
3.006809949874878,0.06,0.05,-0.27,0.28
3.0191450119018555,-0.17,0.04,-0.26,0.31
3.0276248455047607,-0.42,0.02,-0.14,0.44
3.038074016571045,-0.7,0.08,0.03,0.7
3.049884080886841,-0.85,0.31,0.24,0.93
3.0568430423736572,-0.89,0.33,-0.17,0.96
3.069348096847534,-0.96,0.51,-0.46,1.18
3.0775039196014404,-0.85,0.85,-0.52,1.3
3.0882928371429443,-0.71,1.06,-0.64,1.42
3.099778890609741,-1.11,1.38,-0.94,2.0
3.1070010662078857,-1.58,1.94,-0.78,2.62
3.119313955307007,-2.04,2.15,-1.02,3.13
3.127531051635742,-2.51,2.4,-0.95,3.6
3.1383321285247803,-2.28,2.41,-0.91,3.44
3.150240182876587,-1.81,2.56,-1.37,3.42
3.157013177871704,-1.23,2.7,-2.3,3.75
3.169463872909546,-0.67,2.39,-3.37,4.18
3.1776368618011475,-0.1,2.07,-4.04,4.54
3.1883599758148193,0.6,1.88,-4.18,4.62
3.199960947036743,1.75,1.79,-3.75,4.5
3.2069718837738037,3.52,1.95,-2.99,5.01
3.219796895980835,5.52,2.59,-2.02,6.42
3.2277610301971436,6.58,3.63,-0.93,7.57
3.238330125808716,6.62,5.03,0.45,8.32
3.25028395652771,6.3,6.69,1.82,9.36
3.2569968700408936,5.53,8.14,2.2,10.08
3.2693331241607666,3.64,9.46,1.7,10.27
3.2776520252227783,1.28,10.49,1.43,10.66
3.288486957550049,-0.82,11.18,1.68,11.33
3.3007659912109375,-2.28,11.4,2.6,11.91
3.307065963745117,-2.74,10.79,4.41,11.97
3.3194820880889893,-2.17,9.49,6.76,11.85
3.3277809619903564,-1.2,8.11,8.91,12.1
3.338430166244507,-0.56,6.93,10.19,12.33
3.350389003753662,-0.71,5.7,10.36,11.84
3.3570868968963623,-1.58,4.27,9.43,10.47
3.3695709705352783,-2.28,3.03,7.94,8.79
3.3799519538879395,-2.37,1.62,6.1,6.74
3.3884639739990234,-2.41,0.14,4.11,4.76
3.400377035140991,-2.81,-1.26,2.09,3.72
3.4071600437164307,-3.88,-2.56,0.15,4.65
3.419610023498535,-4.86,-3.36,-1.32,6.05
3.427851915359497,-5.35,-3.81,-2.46,7.01
3.438491106033325,-5.88,-4.53,-3.37,8.15
3.4504058361053467,-6.75,-4.92,-3.75,9.15
3.4571540355682373,-7.03,-4.73,-3.8,9.28
3.4696860313415527,-6.57,-4.94,-3.35,8.87
3.477771043777466,-6.54,-5.72,-2.63,9.07
3.4884350299835205,-6.54,-6.52,-1.9,9.42
3.5004940032958984,-6.43,-7.49,-1.04,9.92
3.5072779655456543,-6.93,-8.3,0.04,10.81
3.5197031497955322,-7.72,-8.58,1.2,11.6
3.528027057647705,-8.28,-8.84,2.1,12.29
3.538533926010132,-8.79,-9.06,2.62,12.89
3.5504190921783447,-9.01,-8.84,2.59,12.88
3.5571579933166504,-9.03,-8.2,2.43,12.43
3.569701910018921,-8.5,-7.44,1.62,11.41
3.577846050262451,-7.36,-7.15,0.87,10.29
3.5886151790618896,-6.42,-7.19,0.57,9.65
3.6005539894104004,-5.83,-6.9,0.32,9.03
3.6073591709136963,-5.49,-6.45,0.58,8.48
3.619645833969116,-5.73,-6.23,1.02,8.52
3.62792706489563,-6.05,-6.05,0.66,8.58
3.6385338306427,-6.98,-5.7,0.45,9.02
3.6504509449005127,-7.65,-4.77,-0.09,9.01
3.6572790145874023,-7.49,-4.18,-0.43,8.58
3.6699259281158447,-7.11,-4.16,0.04,8.23
3.6779558658599854,-6.61,-4.49,-0.11,7.99
3.688678026199341,-6.02,-4.3,-0.07,7.39
3.700479030609131,-5.89,-3.15,0.8,6.72
3.707476854324341,-5.83,-0.93,1.31,6.04
3.719702959060669,-5.8,0.87,1.3,6.0
3.7280380725860596,-6.18,1.97,0.65,6.51
3.738672971725464,-6.13,2.91,-0.37,6.79
3.7507388591766357,-5.85,3.44,-1.44,6.93
3.7574031352996826,-5.52,3.23,-2.51,6.87
3.7699978351593018,-5.08,3.08,-3.45,6.86
3.7780539989471436,-3.94,3.51,-3.27,6.2
3.788815975189209,-2.61,4.23,-2.36,5.5
3.8007960319519043,-2.39,4.83,-2.14,5.79
3.807502031326294,-2.84,5.56,-2.1,6.58
3.819774866104126,-2.92,6.12,-1.38,6.91
3.828145980834961,-2.87,5.8,-0.99,6.54
3.838721990585327,-2.01,5.51,-1.44,6.03
3.8507800102233887,-0.91,4.91,-0.22,4.99
3.8574299812316895,0.06,4.41,1.09,4.54
3.8698389530181885,0.62,4.22,1.67,4.58
3.8779890537261963,0.75,4.5,2.81,5.35
3.888714075088501,0.92,4.81,3.78,6.18
3.900611162185669,1.32,5.08,3.12,6.1
3.9073400497436523,1.73,5.25,3.19,6.38
3.920001983642578,2.09,5.72,3.12,6.84
3.928208112716675,2.86,6.44,2.98,7.65
3.9387190341949463,3.98,6.46,2.83,8.09
3.950852155685425,4.81,5.66,2.4,7.8
3.9573490619659424,5.6,5.76,1.43,8.15
3.9699130058288574,6.38,6.05,2.41,9.11
3.978073835372925,6.76,5.96,3.34,9.61
3.9888100624084473,7.41,6.32,3.09,10.21
4.000838994979858,7.27,6.07,3.39,10.05
4.007403135299683,7.96,5.68,3.57,10.41
4.019861936569214,8.63,5.05,3.6,10.62
4.028069019317627,9.48,4.8,3.04,11.05
4.0386199951171875,9.55,4.13,3.04,10.83
4.050697088241577,9.78,3.55,2.82,10.77
4.057482957839966,9.84,3.05,2.36,10.56
4.0700249671936035,8.96,2.5,2.09,9.53
4.078114986419678,8.96,2.39,1.88,9.46
4.088976144790649,9.46,2.28,2.0,9.93
4.100847959518433,9.82,2.27,2.3,10.33
4.107588052749634,9.69,2.64,2.25,10.29
4.1200079917907715,9.52,3.19,2.06,10.24
4.128360033035278,9.22,3.33,2.2,10.04
4.138900995254517,9.34,3.66,1.51,10.14
4.150972127914429,9.64,4.66,0.76,10.73
4.157530069351196,9.3,5.93,0.26,11.03
4.1700520515441895,8.21,7.42,-0.36,11.07
4.178132057189941,6.73,9.21,-0.12,11.4
4.189061880111694,5.06,11.05,0.19,12.15
4.201387166976929,3.08,12.61,0.4,12.98
4.207960844039917,0.27,13.29,0.73,13.31
4.219966173171997,-1.66,13.75,0.32,13.85
4.228692054748535,-3.05,12.94,1.44,13.37
4.239362001419067,-4.69,11.64,2.2,12.74
4.2512571811676025,-5.94,10.68,3.09,12.6
4.257595062255859,-7.08,9.57,3.31,12.35
4.270211935043335,-7.99,8.38,2.82,11.91
4.278423070907593,-9.15,7.17,2.14,11.81
4.289099931716919,-10.05,6.05,1.77,11.86
4.3011438846588135,-10.28,4.88,1.62,11.49
4.307668924331665,-9.84,3.56,1.11,10.52
4.320058107376099,-9.3,2.05,0.52,9.53
4.328325033187866,-8.81,0.41,-0.06,8.81
4.338969945907593,-8.35,-1.12,-0.57,8.44
4.35109806060791,-8.04,-2.41,-0.91,8.44
4.357666015625,-7.74,-3.53,-1.17,8.58
4.37012791633606,-7.42,-4.51,-1.44,8.8
4.378398180007935,-7.59,-5.12,-1.69,9.31
4.389098882675171,-8.1,-5.46,-1.77,9.92
4.401068925857544,-8.63,-5.81,-1.62,10.52
4.407724142074585,-8.46,-6.23,-1.69,10.64
4.420202016830444,-7.63,-6.68,-2.07,10.35
4.4285619258880615,-6.63,-7.19,-2.33,10.05
4.439090013504028,-5.88,-7.44,-2.59,9.83
4.451192140579224,-5.48,-7.7,-2.83,9.86
4.45772910118103,-5.45,-7.98,-2.93,10.09
4.47026801109314,-5.63,-8.15,-2.95,10.33
4.478379964828491,-5.79,-8.22,-2.75,10.42
4.489064931869507,-5.77,-8.19,-2.53,10.33
4.501085042953491,-6.2,-8.01,-2.38,10.4
4.507853984832764,-6.79,-7.82,-2.28,10.6
4.5202929973602295,-7.15,-7.44,-2.32,10.57
4.52857518196106,-6.8,-6.93,-2.18,9.95
4.539138078689575,-6.53,-6.4,-1.96,9.35
4.551090955734253,-6.65,-5.98,-1.7,9.1
4.557836055755615,-6.51,-5.69,-1.53,8.78
4.570294141769409,-6.8,-5.35,-1.21,8.73
4.5784759521484375,-7.46,-4.85,-0.99,8.95
4.589043855667114,-7.73,-4.33,-1.0,8.91
4.6011130809783936,-7.59,-3.7,-1.04,8.5
4.6078879833221436,-7.46,-3.03,-0.88,8.09
4.620218992233276,-7.4,-2.47,-0.91,7.85
4.6285059452056885,-7.42,-1.95,-1.19,7.76
4.639221906661987,-7.61,-1.15,-1.31,7.8
4.6511781215667725,-7.7,-0.37,-1.01,7.77
4.6578240394592285,-7.74,0.15,-0.38,7.75
4.670337915420532,-7.37,0.66,0.5,7.41
4.678483009338379,-6.53,1.42,1.17,6.78
4.689429044723511,-5.89,2.11,1.41,6.41
4.701175928115845,-5.66,2.84,1.31,6.46
4.707959890365601,-5.41,3.79,0.83,6.65
4.720483064651489,-5.04,4.59,0.58,6.84
4.728670835494995,-4.58,5.47,0.63,7.16
4.739209890365601,-3.94,5.86,0.22,7.06
4.751249074935913,-2.97,5.38,-0.44,6.16
4.757904052734375,-1.74,4.8,-0.36,5.11
4.770372152328491,-0.79,4.54,0.55,4.64
4.778584957122803,-0.24,4.81,1.76,5.12
4.789320945739746,-0.15,5.39,2.36,5.88
4.801245927810669,0.28,6.3,2.25,6.69
4.807971000671387,0.48,6.21,1.67,6.44
4.820435047149658,1.16,6.21,-0.32,6.32
4.828686952590942,2.07,5.84,-1.71,6.42
4.839282035827637,3.04,5.83,-2.2,6.93
4.85107684135437,3.73,5.83,-1.73,7.13
4.858000993728638,4.04,5.52,-0.43,6.85
4.87056303024292,4.47,5.09,1.36,6.9
4.8785929679870605,4.6,4.87,2.56,7.17
4.889322996139526,3.99,4.72,2.94,6.84
4.90137791633606,3.74,4.57,2.9,6.57
4.9080588817596436,4.05,4.19,2.78,6.45
4.920384168624878,4.67,3.82,2.76,6.63
4.928670167922974,5.44,3.75,2.58,7.09
4.939297914505005,6.15,3.89,2.56,7.71
4.9512550830841064,6.97,4.18,2.87,8.61
4.957986116409302,7.45,4.11,3.13,9.06
4.970535039901733,7.42,4.23,3.28,9.14
4.978502988815308,6.78,4.37,3.28,8.7
4.989485025405884,6.29,4.31,3.02,8.2
5.001505136489868,6.46,4.42,2.77,8.3
5.0080530643463135,7.44,4.39,2.42,8.97
5.020511865615845,8.26,4.21,2.1,9.5
5.028738975524902,8.48,4.06,1.72,9.55
5.039435148239136,8.37,3.86,1.5,9.33
5.05120587348938,8.43,3.88,1.88,9.46
5.058081865310669,8.79,4.21,2.41,10.03
5.070656061172485,9.11,4.7,2.82,10.63
5.078758955001831,8.98,5.3,2.79,10.79
5.089392900466919,8.56,5.52,1.67,10.32
5.101183176040649,7.49,5.63,0.05,9.37
5.108160972595215,6.59,5.84,-0.96,8.85
5.122480154037476,6.74,5.75,-1.73,9.02
5.128826856613159,7.27,5.76,-2.16,9.52
5.139480829238892,7.36,6.64,-2.12,10.13
5.151167154312134,5.85,8.37,-1.42,10.3
5.158089876174927,3.33,9.24,0.03,9.82
5.170570135116577,1.05,9.57,2.0,9.83
5.179681062698364,-1.0,9.99,4.04,10.82
5.189932107925415,-2.9,9.92,5.17,11.55
5.201153039932251,-4.76,9.77,5.14,12.02
5.2082741260528564,-6.56,9.17,4.72,12.22
5.220710039138794,-7.16,8.17,3.99,11.57
5.229640960693359,-7.24,7.84,3.0,11.08
5.239480972290039,-7.27,7.32,2.32,10.57
5.251134157180786,-7.03,6.0,1.06,9.3
5.258172035217285,-6.68,4.54,-0.3,8.08
5.270672082901001,-6.56,3.18,-0.96,7.35
5.27888298034668,-6.33,1.64,-1.27,6.66
5.28954815864563,-6.16,0.29,-1.33,6.3
5.301064968109131,-6.41,-0.53,-1.22,6.54
5.308265924453735,-7.12,-1.25,-1.29,7.34
5.32068395614624,-8.08,-2.15,-1.58,8.5
5.329295873641968,-8.62,-3.04,-1.88,9.33
5.339521169662476,-8.37,-3.69,-2.08,9.38
5.351030111312866,-7.94,-4.25,-2.25,9.28
5.3582799434661865,-7.66,-4.72,-2.38,9.3
5.37077784538269,-7.68,-5.22,-2.53,9.62
5.379260063171387,-7.57,-5.71,-2.46,9.79
5.3896520137786865,-7.35,-6.06,-2.13,9.76
5.401036024093628,-7.43,-6.46,-1.87,10.02
5.4082090854644775,-7.75,-6.89,-1.87,10.53
5.420727014541626,-7.9,-7.47,-1.95,11.04
5.429373025894165,-7.74,-7.68,-1.92,11.07
5.4396209716796875,-7.46,-7.47,-1.8,10.7
5.451035022735596,-7.05,-7.24,-1.92,10.28
5.4583899974823,-6.86,-6.86,-2.3,9.97
5.470847845077515,-6.79,-6.24,-2.7,9.6
5.479513883590698,-6.62,-5.46,-3.14,9.13
5.489712953567505,-6.5,-4.95,-3.73,8.98
5.500947952270508,-6.32,-4.62,-4.2,8.88
5.508396863937378,-5.87,-4.43,-4.3,8.51
5.520856142044067,-5.46,-4.4,-3.97,8.05
5.529508829116821,-5.49,-4.32,-3.4,7.76
5.539754152297974,-5.84,-4.22,-2.86,7.75
5.55098295211792,-6.08,-3.96,-2.42,7.64
5.5584189891815186,-6.04,-3.65,-2.15,7.37
5.570823907852173,-6.01,-3.36,-1.71,7.09
5.57937216758728,-6.03,-2.97,-1.04,6.8
5.5894999504089355,-6.03,-2.63,-0.45,6.59
5.600985050201416,-6.3,-2.19,-0.06,6.67
5.608503103256226,-6.65,-1.82,0.19,6.89
5.620983839035034,-6.98,-1.41,0.22,7.12
5.62939190864563,-6.98,-0.86,0.2,7.03
5.639704942703247,-6.86,-0.16,0.25,6.86
5.650928020477295,-6.58,0.63,0.27,6.61
5.658436059951782,-6.28,1.57,-0.14,6.47
5.670907974243164,-5.98,2.46,-0.36,6.47
5.679383039474487,-5.39,3.04,-0.42,6.2
5.68985915184021,-4.69,3.3,-0.24,5.73
5.700922012329102,-3.63,3.48,0.47,5.05
5.708497047424316,-2.69,3.96,1.34,4.97
5.721044063568115,-2.6,5.03,1.89,5.96
5.729480981826782,-2.57,6.21,1.94,6.99
5.739774942398071,-2.22,6.73,1.21,7.18
5.7508790493011475,-1.46,6.52,-0.41,6.69
5.7584898471832275,0.16,6.11,-2.03,6.44
5.7708899974823,2.12,6.19,-3.01,7.2
5.779516935348511,3.59,6.6,-3.37,8.23
5.789945840835571,4.28,7.02,-3.19,8.81
5.800813913345337,4.24,7.08,-2.66,8.67
5.808619976043701,3.87,6.79,-1.9,8.04
5.821084022521973,3.6,6.38,-0.77,7.36
5.82966685295105,3.71,5.81,0.51,6.91
5.83983588218689,3.91,5.38,1.91,6.91
5.850883960723877,4.06,5.23,3.48,7.47
5.858660936355591,4.15,4.85,4.5,7.8
5.8711159229278564,4.28,4.67,5.03,8.08
5.879706144332886,3.74,5.82,5.47,8.81
5.890038967132568,5.12,5.94,6.83,10.39
5.900856971740723,8.66,4.36,6.66,11.76
5.908679962158203,8.7,3.23,5.05,10.56
5.921098947525024,7.43,3.1,3.61,8.82
5.929697036743164,6.86,4.11,3.54,8.74
5.939842939376831,6.67,5.6,4.13,9.63
5.950856924057007,7.01,6.2,4.17,10.24
5.9586451053619385,7.13,5.91,3.67,9.96
5.97115683555603,7.63,5.36,3.23,9.86
5.979787111282349,8.23,4.99,2.99,10.07
5.990020036697388,8.19,4.99,2.84,10.0
6.001121997833252,7.95,4.96,2.57,9.71
6.008610010147095,8.05,4.83,2.2,9.64
6.021251916885376,8.17,5.04,2.14,9.83
6.029778003692627,7.99,5.49,2.35,9.97
6.0400049686431885,7.33,6.17,2.32,9.85
6.050870180130005,6.63,6.83,1.93,9.71
6.05865216255188,6.14,7.03,1.65,9.47
6.071213006973267,5.89,6.7,1.7,9.08
6.079743146896362,5.87,6.03,1.93,8.63
6.090017080307007,5.63,5.31,2.16,8.03
6.1007280349731445,4.9,4.95,2.6,7.43
6.10872483253479,3.99,4.85,2.7,6.83
6.121248960494995,2.01,5.4,2.56,6.3
6.129910945892334,-0.62,6.34,2.88,6.99
6.140143156051636,-2.78,6.85,2.84,7.91
6.150739908218384,-4.12,6.66,2.31,8.16
6.158740043640137,-4.59,6.51,1.99,8.21
6.171244859695435,-4.6,6.42,1.46,8.03
6.1798179149627686,-4.93,6.18,0.87,7.95
6.190173864364624,-5.14,5.5,0.41,7.53
6.200681924819946,-5.61,4.72,0.12,7.33
6.210767030715942,-6.4,3.91,0.0,7.49
6.221331834793091,-6.86,2.84,-0.25,7.42
6.229893922805786,-6.74,1.69,-0.54,6.96
6.240246057510376,-6.58,1.0,-0.91,6.71
6.250694036483765,-6.92,0.63,-1.24,7.05
6.2588629722595215,-7.29,0.0,-1.53,7.44
6.271351099014282,-7.33,-0.62,-1.86,7.58
6.279774904251099,-6.79,-1.31,-2.1,7.22
6.290281057357788,-6.28,-1.65,-2.29,6.88
6.300947904586792,-6.01,-1.69,-2.12,6.59
6.308911085128784,-5.78,-1.97,-1.49,6.28
6.321570158004761,-5.85,-2.36,-1.07,6.39
6.330004930496216,-6.03,-2.88,-0.85,6.73
6.340120077133179,-6.29,-3.31,-0.6,7.13
6.350610017776489,-6.94,-3.58,-0.32,7.81
6.3589088916778564,-7.48,-3.88,-0.12,8.42
6.371399164199829,-7.43,-4.38,-0.4,8.63
6.3799309730529785,-6.97,-4.74,-0.86,8.47
6.3902809619903564,-6.43,-4.93,-1.24,8.19
6.4008238315582275,-5.84,-5.24,-1.7,8.02
6.408980131149292,-5.5,-5.49,-2.25,8.09
6.421375036239624,-5.52,-5.65,-2.77,8.37
6.429916143417358,-5.88,-5.78,-3.12,8.81
6.440222978591919,-6.2,-5.96,-3.26,9.19
6.45072603225708,-6.32,-6.07,-3.22,9.33
6.458782911300659,-6.45,-6.07,-3.03,9.36
6.471369028091431,-6.62,-5.93,-2.76,9.3
6.47993803024292,-6.55,-5.81,-2.47,9.09
6.490307092666626,-6.39,-5.65,-1.99,8.75
6.500757932662964,-6.36,-5.44,-1.44,8.49
6.509026050567627,-6.46,-5.24,-0.96,8.37
6.521507978439331,-6.53,-5.05,-0.71,8.28
6.530010938644409,-6.73,-4.8,-0.67,8.29
6.540270090103149,-7.04,-4.32,-0.72,8.29
6.550557851791382,-7.47,-3.57,-0.9,8.32
6.558997869491577,-7.86,-2.84,-1.12,8.43
6.571523904800415,-8.0,-2.08,-1.49,8.39
6.5801379680633545,-7.84,-1.19,-1.76,8.12
6.590453863143921,-7.24,-0.54,-1.84,7.48
6.600516080856323,-6.57,-0.06,-1.68,6.78
6.609112024307251,-6.04,0.42,-1.31,6.19
6.621558904647827,-5.82,0.67,-1.11,5.96
6.630190134048462,-5.7,0.65,-1.29,5.88
6.640208005905151,-5.56,0.94,-1.29,5.78
6.650514841079712,-5.19,1.43,-1.27,5.53
6.659106016159058,-4.73,1.83,-1.5,5.28
6.671611070632935,-4.52,2.12,-1.78,5.3
6.680171966552734,-4.08,2.04,-1.82,4.91
6.690433979034424,-2.79,2.2,-1.15,3.73
6.700412034988403,-1.25,3.17,0.21,3.41
6.709152936935425,-0.62,4.43,1.26,4.64
6.72161602973938,-0.98,5.7,1.47,5.96
6.730095148086548,-1.38,6.37,0.94,6.58
6.740236043930054,-1.54,6.37,0.11,6.55
6.750499963760376,-0.64,5.94,-0.64,6.0
6.758868932723999,1.06,5.71,-0.64,5.84
6.771649122238159,2.37,5.97,0.17,6.42
6.780033826828003,2.9,6.19,1.12,6.92
6.79043984413147,2.79,6.21,1.32,6.93
6.80035400390625,2.61,6.42,1.42,7.07
6.809154987335205,2.46,6.67,1.92,7.36
6.82176399230957,2.83,6.47,2.15,7.38
6.830218076705933,3.28,6.67,0.86,7.48
6.840501070022583,4.74,6.44,2.01,8.24
6.850438833236694,6.15,4.59,3.98,8.64
6.8592000007629395,5.96,4.3,3.38,8.08
6.871654987335205,4.74,5.5,3.25,7.95
6.8802478313446045,4.63,6.28,3.62,8.6
6.890519857406616,6.62,5.91,3.41,9.5
6.90037989616394,6.2,5.69,2.35,8.73
6.909247159957886,5.5,5.76,1.48,8.1
6.921792984008789,6.03,5.87,1.6,8.56
6.930393934249878,6.13,6.04,2.16,8.87
6.940572023391724,6.03,5.73,2.3,8.63
6.950530052185059,6.25,5.1,2.02,8.31
6.95926308631897,6.93,4.63,1.63,8.49
6.971693992614746,7.72,4.41,1.28,8.98
6.9802868366241455,8.06,4.08,0.92,9.08
6.99064302444458,7.97,3.72,0.77,8.82
7.000556945800781,7.99,3.54,0.88,8.78
7.009191989898682,8.18,3.5,1.27,8.98
7.0218870639801025,8.25,3.78,1.65,9.22
7.03033709526062,7.92,4.31,1.85,9.2
7.040578126907349,7.43,5.21,2.03,9.29
7.050463914871216,6.77,6.45,2.08,9.57
7.059305906295776,6.27,7.19,1.77,9.7
7.071887016296387,5.94,7.44,1.57,9.64
7.080303907394409,6.5,7.79,1.75,10.29
7.090605974197388,6.59,8.55,1.83,10.94
7.100538015365601,5.7,9.16,1.33,10.87
7.1093971729278564,4.61,8.95,0.51,10.08
7.12177300453186,2.98,8.92,-0.1,9.4
7.130367994308472,1.24,9.48,-0.06,9.56
7.140655040740967,-0.09,9.39,-0.23,9.39
7.150635004043579,-1.49,8.41,-0.92,8.59
7.159333944320679,-2.45,7.02,-1.61,7.6
7.171924829483032,-2.58,5.58,-2.22,6.53
7.180160045623779,-2.77,4.32,-2.64,5.77
7.190824031829834,-3.73,3.24,-2.37,5.47
7.200631856918335,-3.11,1.06,-1.89,3.79
7.209410905838013,-3.03,-0.95,-0.29,3.18
7.221804857254028,-4.29,-1.32,1.57,4.75
7.230354070663452,-5.58,-1.65,2.17,6.21
7.240915060043335,-7.36,-1.84,1.55,7.74
7.250699043273926,-9.55,-1.58,0.75,9.7
7.259618043899536,-10.81,-2.12,-0.13,11.01
7.272019147872925,-10.29,-3.08,-1.13,10.8
7.280400991439819,-9.12,-3.16,-1.43,9.75
7.29086709022522,-8.01,-2.81,-1.26,8.58
7.3007118701934814,-7.36,-2.69,-1.25,7.93
7.309507131576538,-7.33,-2.81,-1.46,7.98
7.322076082229614,-7.7,-3.16,-1.1,8.39
7.330322980880737,-8.19,-3.4,-0.03,8.86
7.340868949890137,-8.64,-3.55,1.17,9.41
7.350720167160034,-9.19,-3.53,2.15,10.07
7.359496831893921,-9.69,-3.32,2.48,10.53
7.372020959854126,-9.74,-3.08,2.29,10.46
7.380303144454956,-9.03,-2.81,1.81,9.62
7.3908751010894775,-8.26,-3.05,1.0,8.86
7.400654077529907,-8.32,-3.16,-0.32,8.9
7.409516096115112,-8.18,-3.21,-1.64,8.93
7.4221580028533936,-7.55,-3.42,-2.33,8.6
7.4303669929504395,-6.6,-3.54,-2.29,7.83
7.440810918807983,-5.98,-3.77,-1.85,7.3
7.450804948806763,-5.92,-4.24,-1.4,7.41
7.459460973739624,-6.16,-4.66,-1.02,7.79
7.471961975097656,-6.39,-4.75,-0.6,7.98
7.4802539348602295,-6.73,-4.7,-0.33,8.21
7.490832090377808,-6.74,-4.67,-0.5,8.21
7.500741004943848,-6.45,-4.64,-0.99,8.0
7.509603023529053,-5.99,-4.58,-1.65,7.71
7.521937131881714,-5.66,-4.58,-2.35,7.65
7.530279874801636,-5.23,-4.43,-2.71,7.37
7.540956020355225,-4.28,-4.23,-2.69,6.59
7.550858020782471,-3.42,-3.94,-2.6,5.82
7.559622049331665,-3.06,-3.36,-2.71,5.29
7.572116136550903,-2.83,-2.77,-2.91,4.91
7.580268144607544,-2.52,-2.22,-2.96,4.47
7.591012001037598,-2.59,-1.54,-2.88,4.16
7.600927114486694,-3.02,-0.92,-3.03,4.37
7.609667062759399,-3.3,-0.46,-3.02,4.49
7.6222288608551025,-2.84,0.15,-2.94,4.09
7.630440950393677,-2.25,0.43,-2.76,3.58
7.640974044799805,-1.98,0.49,-2.28,3.05
7.650985956192017,-1.41,0.44,-1.52,2.11
7.659653902053833,-1.07,0.64,-0.39,1.3
7.672238111495972,-1.22,1.42,0.79,2.03
7.680314064025879,-2.2,2.43,1.4,3.56
7.6910789012908936,-3.33,3.06,1.58,4.79
7.700946092605591,-3.36,3.23,1.37,4.85
7.709774971008301,-2.24,3.68,1.16,4.46
7.722218036651611,-0.71,4.31,1.7,4.68
7.730459928512573,0.82,4.89,2.25,5.44
7.740945100784302,1.58,5.12,2.29,5.82
7.751021146774292,1.42,5.05,1.94,5.59
7.7596681118011475,1.17,4.69,1.17,4.97
7.772274971008301,1.59,4.36,0.46,4.66
7.780354022979736,2.82,4.29,0.24,5.13
7.791193008422852,3.67,4.39,0.29,5.72
7.80102801322937,3.95,4.89,0.69,6.32
7.809751033782959,4.24,5.26,1.3,6.88
7.822203874588013,4.04,5.39,1.61,6.92
7.830437898635864,3.68,5.51,1.71,6.84
7.841152906417847,3.67,5.4,1.79,6.77
7.851116895675659,4.2,5.19,1.45,6.83
7.859720945358276,5.33,4.98,1.4,7.42
7.872241020202637,6.36,4.61,1.86,8.07
7.880393028259277,6.94,4.57,2.35,8.63
7.891136884689331,6.7,4.87,2.83,8.75
7.9011571407318115,5.69,4.97,2.9,8.09
7.90982985496521,4.95,4.95,2.69,7.49
7.922385931015015,5.26,4.76,2.38,7.48
7.930376052856445,5.64,4.5,1.74,7.42
7.941050052642822,5.87,4.32,1.18,7.38
7.951128959655762,5.99,4.07,0.96,7.3
7.959736108779907,6.07,3.55,1.24,7.14
7.972277879714966,6.06,3.36,1.36,7.06
7.9804909229278564,5.85,3.35,1.38,6.88
7.991091012954712,5.65,3.41,1.27,6.72
8.001062154769897,5.33,3.42,1.09,6.42
8.009801149368286,5.56,3.55,1.24,6.71
8.022350072860718,5.8,4.11,1.68,7.3
8.030509948730469,5.83,4.96,1.89,7.88
8.041166067123413,5.9,5.75,1.74,8.42
8.051063060760498,6.2,6.78,0.88,9.22
8.05983304977417,6.41,7.34,0.01,9.74
8.072593927383423,6.22,7.44,-0.69,9.72
8.080477952957153,6.31,7.72,-0.78,10.0
8.091150999069214,5.72,7.75,-0.53,9.64
8.10117793083191,4.26,7.62,-0.1,8.73
8.109887838363647,2.5,7.21,0.59,7.65
8.122437000274658,1.15,6.22,1.27,6.45
8.130735158920288,0.7,5.07,1.99,5.49
8.14120602607727,0.53,3.97,2.29,4.61
8.151237964630127,-0.5,2.9,1.88,3.49
8.159893035888672,-2.29,2.47,1.35,3.62
8.172513008117676,-4.14,2.24,0.99,4.81
8.180660009384155,-5.16,1.52,0.19,5.38
8.191354036331177,-5.49,0.55,-0.76,5.56
8.201299905776978,-5.6,-0.21,-1.42,5.78
8.210027933120728,-5.78,-0.54,-2.06,6.15
8.222609043121338,-6.03,-0.5,-2.52,6.55
8.230806112289429,-6.36,-0.6,-2.39,6.82
8.241273164749146,-6.9,-0.85,-2.03,7.24
8.251474142074585,-7.31,-1.08,-1.44,7.52
8.259896039962769,-7.67,-1.39,-0.37,7.8
8.272556066513062,-8.4,-1.73,0.69,8.6
8.280655145645142,-9.02,-2.19,1.56,9.41
8.291360139846802,-9.16,-2.58,2.22,9.77
8.301301956176758,-9.21,-2.86,2.63,9.99
8.310325860977173,-9.47,-3.0,2.42,10.22
8.322476148605347,-9.21,-3.18,1.58,9.87
8.330785036087036,-8.52,-3.28,0.74,9.15
8.341295957565308,-7.92,-3.25,-0.02,8.56
8.351423978805542,-7.54,-3.37,-0.66,8.28
8.360389947891235,-7.23,-3.52,-1.31,8.14
8.372536897659302,-6.94,-3.69,-1.87,8.07
8.380826950073242,-6.65,-3.73,-2.51,8.02
8.391431093215942,-6.25,-3.97,-3.04,8.0
8.401381015777588,-5.89,-4.35,-3.36,8.05
8.410524129867554,-5.79,-4.8,-3.33,8.22
8.422626972198486,-5.81,-5.33,-2.74,8.34
8.430937051773071,-5.73,-5.67,-1.52,8.2
8.441359043121338,-5.69,-5.67,-0.41,8.04
8.451471090316772,-5.42,-5.72,-0.39,7.88
8.46048903465271,-5.33,-5.62,-1.2,7.83
8.47275185585022,-5.14,-5.11,-2.52,7.67
8.48082184791565,-4.77,-4.55,-3.7,7.55
8.491539001464844,-4.39,-4.19,-4.23,7.39
8.501406908035278,-4.21,-3.97,-4.3,7.2
8.510617017745972,-4.29,-3.99,-3.92,7.04
8.522665977478027,-4.61,-3.97,-3.07,6.81
8.530923128128052,-4.92,-3.81,-2.28,6.62
8.541703939437866,-5.2,-3.68,-1.62,6.57
8.551522970199585,-5.44,-3.28,-0.72,6.39
8.560500860214233,-5.59,-2.69,0.06,6.2
8.57266116142273,-5.69,-1.93,0.36,6.01
8.580914974212646,-5.96,-1.17,0.42,6.08
8.591516971588135,-6.11,-0.43,0.26,6.13
8.601524114608765,-5.85,0.24,0.17,5.85
8.610552072525024,-5.39,0.97,0.38,5.48
8.62284803390503,-4.72,1.59,0.65,5.02
8.631113052368164,-4.22,1.87,0.43,4.63
8.641625165939331,-3.73,2.01,0.03,4.23
8.651603937149048,-3.07,2.31,-0.32,3.85
8.660613059997559,-2.3,3.1,-0.17,3.86
8.672827005386353,-1.86,4.16,0.06,4.55
8.680922031402588,-2.21,5.41,-0.02,5.84
8.691635847091675,-2.33,6.13,-0.33,6.56
8.7015860080719,-1.63,6.05,-0.87,6.32
8.710661172866821,0.06,5.7,-0.98,5.78
8.722766160964966,1.92,5.28,-0.85,5.68
8.7311429977417,2.8,4.88,-0.62,5.66
8.742419958114624,2.64,5.07,0.09,5.71
8.751585960388184,2.39,5.44,1.12,6.04
8.760536909103394,2.18,5.7,1.92,6.39
8.772877931594849,2.34,5.81,2.12,6.61
8.781109094619751,2.69,5.52,2.2,6.52
8.79172682762146,3.34,4.99,2.62,6.55
8.801774024963379,4.51,4.68,3.38,7.32
8.810701131820679,5.67,4.71,3.75,8.27
8.822713136672974,6.72,5.26,3.09,9.07
8.831078052520752,7.34,6.09,3.04,10.01
8.841701030731201,7.3,7.19,2.98,10.67
8.85170292854309,7.49,7.7,1.5,10.84
8.86067795753479,7.58,7.85,0.54,10.92
8.872962951660156,7.57,7.79,0.59,10.87
8.881067037582397,7.48,7.28,1.0,10.48
8.891771078109741,7.27,6.61,2.06,10.03
8.901635885238647,6.99,5.31,3.58,9.48
8.910792112350464,6.12,4.13,4.3,8.54
8.922814130783081,5.82,3.9,4.25,8.19
8.93107008934021,6.22,3.67,4.46,8.48
8.94170594215393,6.23,3.71,4.04,8.3
8.951733827590942,6.13,4.1,3.7,8.25
8.96071195602417,6.35,4.73,3.32,8.58
8.972946882247925,6.71,5.45,3.46,9.31
8.98113203048706,6.84,6.22,3.43,9.86
8.991751909255981,7.05,6.68,3.29,10.25
9.001609086990356,7.48,7.11,3.0,10.74
9.010875940322876,7.69,7.68,2.46,11.14
9.022908926010132,7.43,8.04,1.87,11.1
9.031331062316895,6.79,8.06,1.28,10.61
9.041818857192993,5.76,7.83,1.02,9.77
9.051805973052979,5.05,7.5,0.82,9.07
9.06077790260315,4.14,7.2,0.23,8.3
9.073053121566772,3.01,6.9,0.33,7.53
9.081207990646362,2.47,6.5,0.65,6.98
9.091796159744263,1.8,5.98,0.68,6.28
9.10178804397583,0.5,5.75,0.75,5.82
9.110987901687622,-0.45,5.43,0.39,5.46
9.123130083084106,-1.15,4.92,-0.39,5.06
9.131333112716675,-2.04,4.43,-1.37,5.06
9.141921997070312,-2.64,3.84,-2.57,5.32
9.151923894882202,-3.58,3.02,-3.42,5.79
9.16089415550232,-5.05,2.64,-3.54,6.7
9.173012018203735,-5.76,1.91,-3.3,6.9
9.181259870529175,-6.76,1.02,-2.73,7.36
9.191946983337402,-8.3,0.38,-1.64,8.46
9.201900959014893,-9.97,-0.04,-0.78,10.0
9.21101689338684,-10.92,-0.57,-0.41,10.94
9.223031997680664,-11.74,-0.91,-0.19,11.77
9.231348991394043,-11.69,-1.3,-0.17,11.76
9.241936922073364,-10.76,-1.97,-0.11,10.93
9.25197696685791,-9.69,-2.69,-0.15,10.05
9.260977029800415,-9.14,-3.48,0.0,9.78
9.273182153701782,-9.38,-3.81,0.28,10.12
9.28141188621521,-10.04,-4.05,0.57,10.84
9.292121171951294,-10.44,-4.3,0.84,11.32
9.301923036575317,-10.15,-4.52,1.25,11.18
9.311100959777832,-9.6,-4.68,1.17,10.74
9.32309889793396,-9.24,-5.0,0.45,10.51
9.331434965133667,-8.78,-5.33,-0.32,10.27
9.342075109481812,-7.82,-5.65,-0.8,9.68
9.35205602645874,-6.95,-5.98,-1.14,9.23
9.3611319065094,-6.43,-6.14,-1.55,9.02
9.373291015625,-6.1,-6.13,-1.99,8.87
9.381371021270752,-5.82,-6.08,-2.28,8.71
9.391996145248413,-5.53,-6.02,-2.48,8.54
9.401939153671265,-5.29,-5.63,-2.36,8.07
9.411198854446411,-4.98,-5.23,-1.88,7.46
9.42333698272705,-4.91,-4.86,-1.41,7.05
9.43154788017273,-5.09,-4.56,-0.85,6.88
9.442031145095825,-5.25,-4.19,-0.39,6.72
9.452161073684692,-5.31,-3.72,-0.26,6.48
9.461138010025024,-5.12,-3.41,-0.64,6.18
9.473191022872925,-5.14,-3.03,-1.39,6.12
9.481471061706543,-5.37,-2.58,-2.14,6.33
9.492132902145386,-5.57,-2.15,-2.31,6.4
9.502017974853516,-5.05,-1.83,-2.06,5.75
9.511271953582764,-4.15,-1.74,-1.91,4.88
9.523348093032837,-3.96,-1.55,-1.88,4.64
9.531584978103638,-4.2,-1.23,-1.9,4.77
9.542108058929443,-4.47,-0.87,-1.71,4.86
9.552186012268066,-4.52,-0.76,-1.27,4.75
9.561147928237915,-4.39,-0.63,-0.58,4.47
9.573386907577515,-4.2,-0.45,-0.1,4.22
9.581562995910645,-3.99,-0.5,0.1,4.02
9.593190908432007,-3.57,-0.26,0.05,3.57
9.602143049240112,-3.24,0.29,0.02,3.25
9.614084959030151,-2.85,1.03,-0.06,3.03
9.623312950134277,-2.77,2.1,-0.42,3.5
9.631538152694702,-2.78,2.92,-0.77,4.1
9.642238855361938,-2.26,3.32,-1.08,4.15
9.65223503112793,-1.24,3.79,-1.3,4.19
9.661139011383057,-0.79,4.28,-1.19,4.51
9.673478841781616,-0.85,5.22,-0.73,5.33
9.681560039520264,-0.72,5.56,-0.29,5.61
9.692211866378784,0.21,5.12,-0.27,5.13
9.702178001403809,1.48,4.93,0.26,5.15
9.711189985275269,2.18,5.09,0.61,5.57
9.72345495223999,1.79,5.52,0.37,5.81
9.731716871261597,1.46,5.94,0.26,6.12
9.74258017539978,1.75,5.78,0.01,6.03
9.752179861068726,2.79,5.61,-0.43,6.28
9.764219045639038,3.72,5.52,-0.7,6.69
9.77346396446228,3.85,5.64,-0.75,6.86
9.781596899032593,4.08,5.41,-0.57,6.79
9.792739152908325,4.55,4.51,-0.01,6.4
9.802225828170776,4.88,3.65,0.85,6.15
9.814239025115967,5.2,3.15,2.09,6.42
9.823455095291138,5.32,2.98,3.01,6.8
9.831857919692993,5.06,2.91,2.84,6.49
9.842613935470581,5.2,2.99,2.45,6.47
9.852434873580933,5.68,3.2,2.62,7.02
9.864210844039917,5.82,3.48,2.19,7.12
9.873592138290405,5.8,4.42,1.32,7.41
9.881725072860718,5.65,5.1,0.76,7.64
9.892729043960571,6.44,5.15,0.06,8.24
9.902374029159546,7.31,4.89,-0.54,8.81
9.91420602798462,8.09,4.51,-0.83,9.29
9.923568964004517,8.4,3.7,-0.45,9.18
9.931874990463257,7.8,3.61,0.06,8.59
9.942564010620117,7.1,4.24,0.17,8.27
9.952368021011353,6.5,4.44,0.48,7.88
9.96418309211731,6.15,4.35,1.03,7.6
9.973613977432251,5.79,4.21,1.88,7.4
9.981750965118408,5.71,4.13,2.5,7.47
9.992846012115479,5.55,4.1,2.73,7.42
10.002408981323242,5.3,3.89,3.36,7.38
10.014183044433594,4.79,4.09,3.73,7.32
10.02356505393982,3.79,4.1,3.89,6.8
10.031840085983276,3.26,3.98,4.07,6.55
10.042792081832886,3.02,3.92,3.97,6.34
10.052376985549927,2.72,4.02,3.72,6.11
10.064410924911499,2.26,4.57,3.68,6.28
10.073729038238525,1.86,5.09,3.43,6.41
10.081915140151978,1.72,5.52,3.0,6.51
10.092919111251831,1.75,5.84,2.38,6.54
10.102533102035522,1.61,5.43,0.91,5.73
10.114266157150269,1.27,4.79,-0.91,5.03
10.123750925064087,1.15,4.41,-1.96,4.96
10.1319420337677,1.27,3.81,-2.41,4.68
10.142943143844604,0.94,3.06,-2.75,4.22
10.152520895004272,0.29,2.31,-2.74,3.59
10.164132833480835,-0.48,1.56,-2.47,2.96
10.173715829849243,-1.29,0.85,-2.24,2.72
10.181906938552856,-2.26,0.47,-2.01,3.06
10.1930570602417,-3.29,0.29,-1.73,3.72
10.202640056610107,-4.24,-0.21,-1.49,4.49
10.214073896408081,-4.74,-0.86,-0.97,4.91
10.223783016204834,-4.88,-1.33,-0.3,5.06
10.232065916061401,-4.93,-1.85,0.12,5.26
10.24288010597229,-5.81,-2.05,-0.15,6.16
10.252596139907837,-7.04,-2.13,-0.32,7.36
10.26443600654602,-7.52,-2.64,-0.35,7.97
10.273797035217285,-7.83,-3.01,-0.14,8.38
10.282036066055298,-8.35,-3.14,0.62,8.94
10.293011903762817,-8.8,-3.16,1.03,9.4
10.302706003189087,-9.4,-3.07,0.99,9.93
10.314118146896362,-9.53,-3.16,1.03,10.09
10.32379698753357,-9.08,-3.11,0.72,9.62
10.332102060317993,-8.69,-2.88,0.2,9.15
10.343018054962158,-8.41,-2.74,-0.07,8.84
10.352789163589478,-8.27,-2.63,-0.25,8.68
10.36409306526184,-8.24,-2.58,-0.3,8.63
10.373862028121948,-8.22,-2.6,-0.27,8.62
10.382138013839722,-8.18,-2.74,-0.44,8.63
10.39316701889038,-7.82,-2.9,-0.91,8.38
10.402719974517822,-6.98,-3.18,-1.44,7.8
10.413985967636108,-6.09,-3.42,-1.66,7.17
10.423887014389038,-5.56,-3.5,-1.57,6.75
10.431999921798706,-5.41,-3.5,-1.36,6.58
10.443165063858032,-5.52,-3.25,-1.19,6.51
10.452726125717163,-5.83,-2.96,-1.06,6.62
10.463911056518555,-6.02,-2.88,-1.05,6.75
10.473674058914185,-6.02,-2.96,-1.16,6.8
10.482149839401245,-5.94,-3.05,-1.07,6.76
10.493158102035522,-5.68,-2.96,-0.95,6.47
10.502681016921997,-5.38,-2.97,-0.89,6.2
10.513892889022827,-5.13,-3.02,-0.84,6.01
10.52403712272644,-4.91,-3.05,-0.87,5.84
10.532203912734985,-4.56,-3.02,-1.1,5.57
10.543186902999878,-4.3,-2.89,-1.32,5.34
10.552860021591187,-4.33,-2.4,-1.28,5.11
10.563932180404663,-4.51,-1.75,-0.83,4.9
10.574100017547607,-4.49,-1.01,-0.22,4.6
10.582154989242554,-4.09,-0.28,0.46,4.12
10.593297958374023,-4.0,0.56,0.59,4.08
10.602834939956665,-3.98,1.39,0.15,4.21
10.61378002166748,-3.94,2.16,-0.25,4.5
10.624140977859497,-3.15,2.88,-0.61,4.31
10.632377862930298,-1.93,3.56,-1.19,4.22
10.643269062042236,-1.7,4.26,-1.97,4.99
10.65293288230896,-1.58,4.51,-2.83,5.55
10.663901090621948,-0.98,4.69,-3.14,5.72
10.67389702796936,0.1,4.8,-2.45,5.39
10.682242155075073,0.97,4.67,-1.56,5.01
10.693418025970459,1.26,4.63,-0.7,4.84
10.702860116958618,1.0,4.91,0.32,5.02
10.713858842849731,0.88,5.01,1.11,5.2
10.724159002304077,1.36,4.68,1.33,5.05
10.732378005981445,2.02,4.39,1.23,4.98
10.74337887763977,2.69,4.28,0.98,5.14
10.753002882003784,3.34,4.2,0.76,5.41
10.763850927352905,3.8,4.15,0.96,5.7
10.776808023452759,4.25,4.19,1.42,6.13
10.78238296508789,4.96,3.95,1.9,6.61
10.793381929397583,5.45,3.61,2.24,6.91
10.803097009658813,5.59,3.5,2.33,6.99
10.81378698348999,5.89,3.4,2.23,7.15
10.824114084243774,5.93,3.52,2.06,7.19
10.83236813545227,5.72,3.9,2.06,7.22
10.84346318244934,5.78,3.97,2.11,7.32
10.85307002067566,6.47,3.92,2.48,7.96
10.863703966140747,7.45,4.06,3.39,9.13
10.874392986297607,7.71,4.25,3.64,9.52
10.883085012435913,7.43,4.59,3.42,9.37
10.893500089645386,7.16,5.21,3.45,9.5
10.903028011322021,7.26,5.57,3.7,9.87
10.913870096206665,7.31,6.03,3.81,10.21
10.924224138259888,7.28,6.65,3.6,10.49
10.932531118392944,7.18,7.03,3.2,10.54
10.943413972854614,7.14,7.42,3.01,10.72
10.953022003173828,7.14,7.66,3.06,10.9
10.96363615989685,7.0,7.8,3.06,10.91
10.974220991134644,6.59,7.91,2.97,10.71
10.982563018798828,6.11,7.85,2.7,10.3
10.993525981903076,5.62,7.61,2.61,9.81
11.003062963485718,5.16,7.41,2.62,9.4
11.013864040374756,4.64,7.15,2.35,8.84
11.024295091629028,3.68,6.7,1.91,7.87
11.03252387046814,2.61,6.21,1.53,6.9
11.04365611076355,1.68,5.51,1.3,5.9
11.053179025650024,1.03,4.64,1.34,4.93
11.063950061798096,0.97,3.77,1.31,4.1
11.074342966079712,0.92,3.2,1.3,3.57
11.082542181015015,0.13,2.95,1.29,3.22
11.093567132949829,-1.07,2.52,0.63,2.8
11.103451013565063,-2.26,1.99,-0.05,3.01
11.11393404006958,-3.1,1.66,-0.17,3.52
11.124351978302002,-3.38,1.22,-0.33,3.6
11.132713079452515,-3.33,0.65,-0.69,3.46
11.143625020980835,-3.63,0.23,-0.89,3.74
11.153337955474854,-4.08,0.07,-1.09,4.22
11.163702964782715,-4.51,-0.25,-1.43,4.73
11.174468994140625,-5.25,-0.76,-1.58,5.53
11.182614088058472,-5.81,-1.28,-1.26,6.08
11.193837881088257,-5.94,-1.86,-0.88,6.28
11.203367948532104,-6.05,-2.35,-0.65,6.52
11.213727951049805,-6.31,-2.64,-0.7,6.87
11.224486112594604,-6.98,-2.61,-1.0,7.51
11.232799053192139,-7.59,-2.72,-1.07,8.13
11.243746995925903,-7.99,-2.9,-0.95,8.55
11.253463983535767,-8.09,-2.99,-0.87,8.66
11.263628959655762,-8.14,-3.17,-0.86,8.77
11.275042057037354,-8.31,-3.37,-0.92,9.01
11.282832860946655,-8.26,-3.68,-0.95,9.09
11.293827056884766,-8.0,-4.03,-0.83,8.99
11.30339002609253,-7.93,-4.22,-0.76,9.01
11.313850164413452,-8.1,-4.45,-0.71,9.26
11.325080156326294,-8.27,-4.74,-0.65,9.55
11.33287501335144,-8.41,-4.97,-0.41,9.77
11.343785047531128,-8.39,-5.07,-0.26,9.8
11.353357076644897,-8.11,-5.19,-0.42,9.63
11.363670110702515,-7.5,-5.27,-0.91,9.21
11.374565839767456,-6.97,-5.15,-1.5,8.79
11.382905960083008,-6.78,-4.81,-1.93,8.53
11.394001007080078,-6.81,-4.45,-2.32,8.45
11.403483152389526,-6.83,-4.13,-2.68,8.41
11.413524866104126,-6.7,-3.93,-2.75,8.23
11.424996137619019,-6.85,-3.76,-2.43,8.18
11.432991981506348,-7.02,-3.53,-1.66,8.03
11.443884134292603,-6.89,-3.31,-0.75,7.68
11.453569173812866,-6.77,-3.08,-0.07,7.43
11.463558912277222,-6.68,-2.78,0.25,7.23
11.474956035614014,-6.62,-2.2,0.24,6.98
11.48284101486206,-6.69,-1.32,-0.33,6.82
11.494063138961792,-6.47,-0.57,-1.31,6.62
11.50356411933899,-5.86,-0.05,-2.31,6.29
11.513635873794556,-5.12,0.33,-3.03,5.95
11.525110960006714,-4.31,0.67,-3.4,5.53
11.53307294845581,-3.57,0.91,-3.22,4.89
11.544003963470459,-3.17,0.95,-2.62,4.22
11.553650140762329,-3.16,1.27,-1.89,3.89
11.563510179519653,-3.24,1.78,-0.9,3.8
11.575111150741577,-3.5,2.65,0.2,4.39
11.582926034927368,-3.45,3.66,1.04,5.13
11.594174146652222,-3.0,4.48,1.23,5.53
11.603639841079712,-2.02,4.94,0.94,5.41
11.613584995269775,-0.86,4.86,0.37,4.94
11.625205039978027,0.16,4.9,0.21,4.9
11.63311505317688,0.92,5.2,0.51,5.3
11.644170999526978,1.19,5.7,0.85,5.88
11.653707027435303,-2.08,19.62,-3.49,20.03
11.66348385810852,-7.94,35.75,-12.49,38.69
11.675117015838623,14.32,-18.51,-4.21,23.77
11.683084964752197,15.09,-10.63,6.4,19.53
11.694164037704468,6.52,4.11,16.11,17.85
11.703773975372314,5.01,7.16,14.51,16.93
11.713379144668579,0.91,2.37,8.53,8.89
11.725073099136353,0.03,1.43,3.87,4.12
11.733160018920898,0.6,4.97,3.42,6.06
11.744149923324585,4.85,7.77,4.82,10.35
11.753782033920288,7.93,7.46,3.66,11.48
11.76330018043518,9.37,5.25,2.17,10.95
11.77529501914978,9.53,3.66,1.67,10.34
11.783140897750854,8.44,2.96,2.27,9.22
11.794188022613525,7.88,2.56,2.65,8.69
11.803750038146973,7.46,2.23,2.67,8.23
11.813241004943848,7.32,2.05,3.02,8.17
11.82524299621582,6.97,1.87,3.31,7.93
11.833173036575317,6.48,2.01,3.75,7.75
11.844174146652222,5.89,2.53,4.1,7.6
11.8538339138031,5.86,2.84,3.94,7.61
11.863126993179321,6.36,2.95,3.38,7.78
11.875319004058838,6.67,3.23,2.86,7.94
11.883198976516724,6.8,3.58,2.5,8.08
11.894222974777222,6.92,3.85,2.16,8.2
11.903853178024292,7.03,4.26,1.9,8.43
11.9132239818573,6.61,4.92,1.77,8.42
11.925323963165283,5.6,5.32,1.64,7.89
11.933365106582642,5.08,5.37,1.54,7.55
11.944166898727417,5.16,5.56,1.66,7.76
11.95399785041809,4.98,5.48,1.98,7.66
11.963171005249023,4.86,5.1,2.25,7.39
11.97556185722351,4.73,4.49,2.39,6.94
11.983289003372192,4.7,3.61,2.22,6.32
11.994393110275269,4.62,2.83,1.79,5.7
12.003813028335571,4.25,2.9,1.16,5.27
12.013190984725952,2.92,3.44,0.77,4.57
12.025439023971558,1.5,3.78,0.39,4.08
12.033230066299438,0.02,4.0,-0.14,4.0
12.044183015823364,-0.9,4.8,0.18,4.88
12.054065942764282,-1.41,6.3,0.81,6.5
12.063061952590942,-1.92,7.15,1.04,7.47
12.075441122055054,-2.65,6.96,0.88,7.49
12.083236932754517,-3.25,6.46,0.35,7.23
12.094336032867432,-3.71,6.06,0.0,7.1
12.103957891464233,-4.16,5.67,-0.44,7.04
12.113311052322388,-4.89,5.16,-1.15,7.2
12.125364065170288,-6.1,4.54,-1.73,7.79
12.133440971374512,-7.49,3.82,-1.91,8.62
12.144262075424194,-8.61,2.96,-1.79,9.27
12.153975009918213,-9.2,1.6,-1.28,9.42
12.163141012191772,-8.68,0.18,-1.19,8.76
12.175520181655884,-7.74,-0.77,-0.95,7.83
12.183395147323608,-7.21,-1.52,-0.76,7.4
12.19425106048584,-7.39,-2.36,-0.95,7.81
12.203948974609375,-7.72,-3.41,-1.08,8.5
12.213074922561646,-7.99,-4.42,-1.1,9.19
12.225466966629028,-8.07,-5.31,-0.96,9.7
12.233496904373169,-8.29,-5.78,-0.46,10.11
12.244266986846924,-8.86,-5.94,0.22,10.66
12.254024028778076,-9.25,-6.11,0.71,11.1
12.26299786567688,-9.16,-6.22,0.9,11.1
12.275760889053345,-8.83,-6.32,1.03,10.9
12.28345513343811,-8.63,-6.36,0.82,10.75
12.294327974319458,-8.42,-6.47,0.24,10.62
12.304079055786133,-8.17,-6.52,-0.46,10.46
12.313246965408325,-7.71,-6.33,-0.98,10.02
12.32564091682434,-7.18,-6.3,-1.38,9.65
12.333526849746704,-6.55,-6.19,-1.65,9.16
12.34433102607727,-6.14,-5.95,-1.82,8.74
12.35422682762146,-6.31,-5.57,-1.96,8.64
12.363342046737671,-6.86,-5.29,-2.02,8.89
12.37600302696228,-7.19,-4.95,-1.91,8.93
12.383632898330688,-7.05,-4.48,-1.51,8.48
12.394381046295166,-6.85,-4.17,-1.09,8.09
12.404175996780396,-6.58,-3.98,-0.8,7.73
12.413366079330444,-6.32,-3.87,-0.7,7.44
12.425920963287354,-6.56,-3.6,-1.09,7.56
12.433533906936646,-6.28,-3.09,-1.97,7.27
12.444350004196167,-5.66,-2.88,-2.57,6.85
12.454167127609253,-5.6,-2.5,-2.98,6.81
12.463170051574707,-5.92,-1.5,-3.02,6.81
12.475610971450806,-6.23,-0.27,-2.68,6.78
12.483427047729492,-6.49,0.74,-2.0,6.83
12.494241952896118,-6.08,1.63,-1.32,6.43
12.504103899002075,-4.92,2.63,-0.87,5.64
12.513159990310669,-3.64,3.35,-0.51,4.97
12.52593207359314,-2.91,3.84,-0.56,4.85
12.533663988113403,-2.33,4.23,-0.9,4.91
12.544371843338013,-2.03,4.79,-0.97,5.29
12.554332971572876,-2.12,5.55,-0.59,5.97
12.563522100448608,-2.03,6.21,-0.08,6.53
12.575952053070068,-1.15,6.29,0.28,6.4
12.58367395401001,-0.03,6.1,0.21,6.1
12.594457864761353,0.36,5.88,0.44,5.9
12.604142904281616,0.81,5.36,0.44,5.43
12.613056898117065,1.34,4.8,0.37,4.99
12.625844955444336,2.1,4.02,0.6,4.57
12.633693933486938,2.97,3.45,0.76,4.61
12.64423394203186,3.62,3.45,1.26,5.15
12.65444016456604,4.05,3.39,1.47,5.48
12.663663148880005,3.98,3.55,1.21,5.46
12.675907850265503,3.85,3.9,1.43,5.66
12.683738946914673,4.26,3.78,1.81,5.97
12.694429159164429,5.45,3.44,1.94,6.73
12.70441198348999,6.48,3.28,1.96,7.52
12.713637113571167,7.26,3.19,1.88,8.14
12.725975036621094,7.79,3.25,1.8,8.63
12.733774900436401,7.61,3.96,2.22,8.86
12.744483947753906,6.8,4.83,2.67,8.75
12.754542112350464,6.41,5.67,2.87,9.02
12.763761043548584,6.48,6.39,2.85,9.53
12.776031017303467,6.86,6.62,2.52,9.86
12.783716917037964,7.49,6.73,2.08,10.28
12.794605016708374,8.25,6.72,1.54,10.75
12.804471969604492,8.72,6.39,1.18,10.87
12.81346583366394,8.86,6.02,1.55,10.82
12.826131105422974,8.87,5.65,2.15,10.73
12.83390212059021,8.73,5.26,2.69,10.54
12.844522953033447,8.2,5.07,3.18,10.15
12.854544878005981,7.54,5.37,3.2,9.79
12.86363697052002,6.71,6.03,3.1,9.53
12.876146078109741,6.07,6.39,2.93,9.28
12.883872032165527,5.49,6.52,2.5,8.88
12.894629955291748,5.3,6.65,2.35,8.82
12.904608011245728,5.43,6.62,2.37,8.88
12.913835048675537,5.32,6.6,2.41,8.81
12.926195859909058,5.09,6.56,2.23,8.59
12.933934926986694,4.41,6.2,1.93,7.84
12.944711923599243,3.22,5.59,2.06,6.77
12.95467495918274,1.89,5.15,2.66,6.09
12.963771104812622,0.36,4.8,3.22,5.79
12.976333856582642,-1.1,4.32,3.68,5.78
12.984011888504028,-1.74,3.82,3.55,5.49
12.994802951812744,-1.65,3.16,2.66,4.44
13.004613161087036,-1.69,2.59,1.5,3.43
13.014005899429321,-1.6,2.25,0.19,2.76
13.026292085647583,-1.45,1.8,-1.09,2.55
13.034087896347046,-1.71,1.29,-1.83,2.81
13.04479718208313,-2.13,0.97,-1.99,3.07
13.054721117019653,-3.06,1.17,-1.95,3.81
13.06389594078064,-4.35,1.33,-1.66,4.84
13.076352834701538,-5.6,1.06,-1.71,5.95
13.084041833877563,-5.83,0.51,-1.8,6.12
13.094900846481323,-5.43,0.1,-1.6,5.66
13.104673147201538,-5.27,-0.12,-1.27,5.42
13.114301919937134,-5.33,-0.65,-1.21,5.5
13.126335859298706,-5.76,-1.41,-1.45,6.1
13.134184122085571,-6.46,-2.0,-1.6,6.94
13.144837141036987,-7.23,-2.3,-1.55,7.74
13.154806852340698,-7.76,-2.67,-0.98,8.26
13.164058923721313,-8.36,-3.17,-0.28,8.94
13.17644715309143,-9.08,-3.76,0.36,9.83
13.184195041656494,-9.2,-4.09,0.87,10.1
13.195021867752075,-9.16,-4.27,1.35,10.19
13.2048499584198,-8.91,-4.32,1.54,10.02
13.21415400505066,-8.55,-4.54,1.33,9.77
13.226439952850342,-8.66,-4.86,0.77,9.96
13.234276056289673,-8.92,-5.13,0.4,10.29
13.244993925094604,-8.79,-5.44,0.26,10.34
13.254837036132812,-8.4,-5.63,0.22,10.11
13.264289140701294,-8.04,-5.83,0.32,9.93
13.276539087295532,-7.81,-6.0,0.26,9.85
13.284446001052856,-7.74,-6.11,0.02,9.86
13.295101881027222,-7.68,-6.15,-0.16,9.84
13.304934024810791,-7.36,-5.94,-0.38,9.46
13.314366102218628,-7.05,-5.65,-0.61,9.05
13.32658314704895,-6.88,-5.3,-0.79,8.72
13.334378004074097,-6.81,-4.83,-0.93,8.4
13.345063924789429,-6.7,-4.35,-1.26,8.08
13.35496211051941,-7.0,-3.86,-1.33,8.1
13.364197969436646,-7.57,-3.12,-1.11,8.26
13.376560926437378,-7.69,-2.35,-0.76,8.07
13.384269952774048,-7.58,-1.83,-0.57,7.81
13.395156145095825,-7.05,-1.37,-0.44,7.19
13.404865026473999,-6.07,-0.75,-0.1,6.11
13.41415810585022,-5.73,-0.17,0.04,5.73
13.426509141921997,-5.63,0.44,-0.13,5.64
13.43442988395691,-5.51,0.96,-0.28,5.6
13.445260047912598,-5.4,1.5,-0.65,5.64
13.455201864242554,-4.71,1.57,-1.05,5.07
13.464560985565186,-3.87,1.66,-1.3,4.4
13.476733922958374,-2.93,2.05,-1.35,3.82
13.484423875808716,-2.48,2.52,-1.15,3.71
13.495162010192871,-2.49,2.89,-0.92,3.92
13.504986047744751,-2.58,3.57,-0.6,4.44
13.514317035675049,-2.19,4.82,0.01,5.29
13.52660584449768,-1.84,5.97,0.4,6.25
13.534476041793823,-1.74,6.1,0.2,6.34
13.545125007629395,-0.72,5.77,-0.26,5.82
13.56224799156189,0.47,5.63,-0.41,5.66
13.567447900772095,1.52,5.96,-0.16,6.15
13.57667088508606,1.85,6.68,0.27,6.93
13.584414958953857,1.88,7.2,0.68,7.47
13.59523606300354,2.17,6.88,0.77,7.25
13.605087995529175,3.22,6.39,0.58,7.17
13.614411115646362,4.65,6.27,0.5,7.82
13.626763105392456,5.72,6.21,0.4,8.45
13.63457202911377,5.98,6.02,0.17,8.48
13.645233869552612,6.02,5.97,0.26,8.48
13.65522313117981,6.37,6.07,0.67,8.82
13.66463589668274,7.06,6.18,1.1,9.44
13.676774024963379,7.63,5.99,1.83,9.87
13.684529066085815,7.78,5.87,2.0,9.94
13.695325136184692,7.94,6.17,2.39,10.33
13.705137968063354,8.11,6.31,2.2,10.5
13.714537858963013,8.64,5.98,1.75,10.65
13.726815938949585,8.82,5.49,1.65,10.51
13.734639883041382,8.77,5.31,1.89,10.42
13.745221853256226,9.08,5.28,2.0,10.69
13.755259037017822,9.4,5.22,1.69,10.88
13.764794111251831,9.62,5.18,1.53,11.03
13.776892900466919,9.59,5.27,1.33,11.02
13.784548044204712,9.42,5.5,1.05,10.95
13.7953519821167,9.33,6.14,0.86,11.2
13.805232048034668,8.73,6.81,0.76,11.09
13.814643144607544,7.48,7.47,0.78,10.59
13.82688593864441,6.26,8.09,1.1,10.28
13.83467698097229,5.34,8.24,1.32,9.9
13.845316171646118,4.83,8.16,1.51,9.6
13.85538101196289,4.28,8.03,1.96,9.3
13.864753007888794,3.26,7.63,2.32,8.61
13.876881837844849,2.04,6.6,2.36,7.3
13.884618997573853,1.15,5.41,2.4,6.02
13.895455121994019,0.7,4.46,2.7,5.26
13.905348062515259,0.22,3.53,3.03,4.65
13.9148428440094,-0.45,2.85,3.14,4.26
13.926932096481323,-1.23,2.47,3.02,4.09
13.934774160385132,-2.32,1.92,2.31,3.79
13.945243120193481,-3.51,1.56,1.22,4.03
13.956141948699951,-4.31,1.22,0.32,4.49
13.965626001358032,-4.94,0.78,-0.42,5.01
13.97682785987854,-5.0,0.5,-0.51,5.05
13.984755039215088,-4.85,0.64,-0.09,4.89
13.995436906814575,-5.22,0.82,0.76,5.33
14.005308866500854,-5.91,0.73,1.72,6.19
14.014855146408081,-6.29,0.48,2.41,6.75
14.027045965194702,-6.55,0.23,2.6,7.05
14.03483510017395,-7.0,0.12,2.09,7.3
14.045562028884888,-7.27,-0.01,0.96,7.33
14.055536985397339,-7.48,-0.3,-0.3,7.49
14.065047025680542,-7.78,-0.82,-1.39,7.94
14.077044010162354,-8.05,-1.47,-2.12,8.45
14.084779024124146,-8.12,-2.03,-2.42,8.71
14.09562087059021,-7.92,-2.53,-2.29,8.62
14.105412006378174,-7.62,-3.12,-2.02,8.47
14.115203142166138,-7.18,-3.75,-1.78,8.29
14.127086877822876,-6.89,-4.34,-1.6,8.29
14.134988069534302,-6.94,-4.81,-1.37,8.55
14.145648956298828,-7.08,-5.21,-1.08,8.85
14.155624151229858,-7.06,-5.55,-1.01,9.03
14.165397882461548,-6.64,-5.9,-1.02,8.94
14.1772301197052,-6.25,-6.06,-1.14,8.77
14.184879064559937,-5.85,-6.04,-1.21,8.49
14.195604085922241,-5.62,-6.0,-1.32,8.32
14.205654859542847,-5.52,-5.89,-1.57,8.22
14.21521782875061,-5.38,-5.74,-1.77,8.06
14.227149963378906,-5.43,-5.52,-1.89,7.97
14.234938859939575,-5.6,-5.17,-1.94,7.86
14.245617151260376,-5.74,-4.75,-1.84,7.67
14.25559401512146,-6.0,-4.45,-1.78,7.67
14.265038967132568,-6.14,-4.11,-1.81,7.6
14.277270078659058,-6.39,-3.86,-2.04,7.73
14.285032033920288,-6.43,-3.97,-1.99,7.81
14.295775175094604,-6.19,-4.14,-1.58,7.61
14.305613040924072,-5.76,-4.2,-1.01,7.19
14.315150022506714,-5.1,-4.18,-0.74,6.63
14.327352046966553,-4.82,-4.07,-0.81,6.36
14.335083961486816,-4.88,-3.74,-1.0,6.22
14.345721006393433,-5.27,-2.98,-1.19,6.17
14.355687856674194,-5.88,-1.87,-1.31,6.3
14.365151166915894,-5.9,-0.81,-1.25,6.08
14.377387046813965,-5.65,0.15,-1.11,5.75
14.385053873062134,-5.55,1.23,-1.01,5.77
14.395815134048462,-5.23,2.38,-1.03,5.83
14.405769109725952,-4.96,3.4,-1.14,6.12
14.415435075759888,-4.77,4.5,-1.13,6.65
14.427263975143433,-4.25,5.1,-1.07,6.72
14.435176134109497,-3.71,5.43,-0.95,6.64
14.445755958557129,-2.84,5.73,-0.48,6.41
14.455857992172241,-2.3,5.75,0.2,6.19
14.465399026870728,-1.99,5.65,0.78,6.04
14.477350950241089,-1.54,5.75,1.31,6.09
14.485120058059692,-1.14,5.87,1.7,6.21
14.495830059051514,-0.82,5.7,1.76,6.02
14.505922079086304,-0.13,5.69,1.85,5.98
14.515526056289673,0.98,5.74,1.9,6.12
14.527509927749634,1.87,5.58,1.87,6.17
14.535130977630615,2.63,5.43,1.84,6.3
14.54575514793396,3.26,4.94,1.87,6.2
14.556049108505249,4.01,4.27,1.94,6.17
14.565505981445312,4.86,3.85,2.17,6.56
14.57764196395874,5.44,3.8,2.62,7.13
14.58516812324524,5.94,4.03,3.12,7.82
14.59617304801941,6.52,4.6,3.39,8.66
14.605851888656616,6.66,5.23,3.47,9.15
14.61540699005127,6.8,5.59,3.17,9.35
14.627569913864136,7.49,5.41,2.89,9.68
14.635427951812744,8.23,5.07,2.57,10.0
14.645920038223267,8.34,4.89,2.71,10.04
14.660352945327759,7.85,4.96,2.96,9.74
14.665657997131348,7.66,4.66,3.17,9.51
14.677560091018677,7.71,4.11,3.1,9.27
14.685212850570679,7.91,3.85,3.27,9.38
14.695965051651001,7.77,3.97,3.27,9.31
14.710355043411255,7.32,3.99,3.19,8.92
14.715623140335083,7.14,3.93,3.09,8.71
14.727627038955688,7.21,3.92,3.12,8.77
14.73550295829773,7.48,3.99,3.06,9.01
14.746140003204346,7.62,4.29,2.71,9.15
14.76051115989685,7.64,4.8,2.37,9.32
14.7657790184021,7.51,5.4,2.2,9.5
14.777517080307007,7.21,6.21,2.07,9.73
14.785320043563843,6.67,6.86,1.83,9.74
14.79619812965393,5.91,6.93,1.43,9.21
14.810652017593384,5.34,6.48,1.04,8.46
14.815871000289917,5.12,5.96,1.0,7.92
14.827631950378418,4.73,5.44,1.26,7.31
14.835467100143433,3.89,4.97,1.49,6.48
14.846133947372437,2.61,4.6,1.75,5.57
14.86037802696228,1.32,4.0,1.99,4.65
14.865660905838013,0.42,3.4,2.06,3.99
14.877537965774536,-0.35,2.85,1.89,3.43
14.88535189628601,-0.9,2.09,1.49,2.71
14.896152019500732,-1.58,1.45,0.63,2.23
14.910456895828247,-2.31,0.89,-0.37,2.5
14.915747880935669,-3.03,0.52,-1.14,3.27
14.927474975585938,-3.7,0.25,-1.52,4.0
14.935526132583618,-4.13,-0.11,-1.51,4.39
14.946158170700073,-4.99,-0.01,-1.66,5.25
14.960601091384888,-6.27,-0.06,-1.78,6.51
14.965943098068237,-7.3,-0.59,-1.83,7.54
14.977493047714233,-7.76,-1.06,-1.72,8.01
14.985460042953491,-7.33,-1.34,-1.4,7.58
14.996162176132202,-7.25,-1.39,-1.15,7.47
15.010674953460693,-7.93,-1.45,-1.14,8.14
15.015944957733154,-8.67,-1.83,-1.25,8.94
15.027531862258911,-9.33,-2.22,-1.34,9.68
15.03553295135498,-9.57,-2.72,-1.09,10.0
15.046334981918335,-9.14,-3.22,-0.65,9.71
15.060575008392334,-8.63,-3.63,-0.2,9.36
15.065814018249512,-8.52,-3.98,0.23,9.4
15.077481985092163,-8.63,-4.32,0.5,9.66
15.085608005523682,-8.81,-4.37,0.58,9.85
15.09624195098877,-8.94,-4.29,0.51,9.92
15.110656023025513,-9.15,-4.21,0.06,10.07
15.115942001342773,-8.66,-4.27,-0.62,9.67
15.127504110336304,-7.72,-4.52,-1.25,9.03
15.135605096817017,-7.09,-4.47,-1.99,8.61
15.14629602432251,-6.74,-4.29,-2.58,8.39
15.161009073257446,-6.49,-4.07,-3.08,8.25
15.16635799407959,-6.45,-3.77,-3.39,8.2
15.177458047866821,-6.62,-3.56,-3.45,8.27
15.185721158981323,-7.02,-3.45,-3.19,8.44
15.196257829666138,-7.25,-3.36,-2.6,8.4
15.210795164108276,-6.99,-3.35,-1.84,7.96
15.216070890426636,-6.7,-3.1,-1.21,7.48
15.227450132369995,-6.42,-2.65,-0.66,6.97
15.235674142837524,-6.06,-2.19,-0.52,6.46
15.246390104293823,-5.88,-1.89,-0.6,6.2
15.260645151138306,-5.88,-1.45,-0.72,6.09
15.265744924545288,-5.52,-0.6,-0.58,5.58
15.277431011199951,-5.06,0.25,-0.43,5.08
15.285753965377808,-5.31,0.95,-0.42,5.41
15.296926975250244,-5.2,1.6,-0.39,5.45
15.3108229637146,-4.89,2.42,-0.35,5.46
15.315948963165283,-4.79,2.97,-0.35,5.64
15.32750916481018,-4.62,3.06,-0.41,5.55
15.335790872573853,-3.89,2.79,-0.34,4.79
15.346562147140503,-2.72,2.69,-0.4,3.84
15.361013174057007,-1.11,3.11,-0.37,3.32
15.366286039352417,0.3,3.42,-0.72,3.5
15.37751317024231,0.62,3.89,-1.37,4.17
15.385766983032227,0.39,4.3,-1.67,4.62
15.396481990814209,0.38,4.72,-1.73,5.04
15.410919904708862,1.34,4.54,-1.57,4.98
15.416137933731079,2.64,4.52,-1.32,5.39
15.427679061889648,3.69,5.12,-0.57,6.33
15.435955047607422,3.68,5.52,0.21,6.63
15.446652173995972,3.56,5.31,0.53,6.41
15.461042165756226,3.81,5.27,0.87,6.56
15.466299057006836,4.6,5.18,1.25,7.03
15.477288007736206,5.62,4.7,1.25,7.43
15.485738039016724,6.34,4.56,1.4,7.93
15.496569871902466,6.54,4.66,1.69,8.2
15.510825872421265,6.72,4.52,1.69,8.27
15.515889883041382,6.78,4.57,1.7,8.35
15.527714967727661,7.2,4.35,2.2,8.69
15.535964012145996,7.4,4.21,2.3,8.81
15.54672884941101,7.79,4.09,2.42,9.12
15.561116933822632,8.09,3.68,2.27,9.17
15.56637692451477,8.17,3.21,2.09,9.02
15.57765793800354,8.14,2.84,2.05,8.86
15.585975885391235,8.47,2.48,2.1,9.07
15.596603155136108,9.16,2.01,2.03,9.59
15.611160039901733,9.5,1.85,1.76,9.83
15.616341829299927,9.08,1.96,1.48,9.4
15.62782597541809,8.3,2.43,1.38,8.75
15.63599705696106,7.68,3.36,1.67,8.54
15.646759986877441,7.15,4.76,2.17,8.85
15.661295175552368,6.56,5.89,2.57,9.18
15.666515111923218,5.87,6.52,2.82,9.21
15.677762985229492,5.44,6.51,3.1,9.03
15.686234951019287,5.51,6.34,3.47,9.08
15.696739912033081,5.84,6.17,3.84,9.32
15.711205959320068,5.8,5.89,3.77,9.08
15.716377973556519,5.41,5.33,3.37,8.3
15.727782964706421,4.9,4.78,2.75,7.37
15.736163854598999,4.34,4.41,1.96,6.49
15.746854066848755,3.45,4.31,1.09,5.62
15.76137399673462,1.69,4.5,0.28,4.81
15.766586065292358,0.51,4.21,-0.35,4.25
15.777915000915527,0.34,3.66,-0.99,3.8
15.786009073257446,0.51,3.67,-0.96,3.82
15.796802997589111,0.57,4.04,-0.49,4.1
15.811365842819214,-0.27,3.44,-0.53,3.49
15.816622018814087,-1.25,2.15,-0.93,2.65
15.827974081039429,-2.06,0.98,-0.84,2.43
15.83614993095398,-2.6,0.4,-0.24,2.64
15.8469979763031,-3.44,0.19,0.49,3.47
15.861469984054565,-4.78,0.03,0.88,4.86
15.866732835769653,-5.99,-0.51,1.04,6.1
15.87804102897644,-6.45,-1.19,1.08,6.64
15.886246919631958,-6.09,-1.62,1.13,6.4
15.896875143051147,-5.74,-1.99,1.04,6.16
15.91147494316101,-5.7,-2.39,0.35,6.19
15.916691064834595,-5.9,-2.61,-0.38,6.46
15.928107023239136,-6.41,-2.52,-0.95,6.95
15.936262845993042,-7.31,-2.01,-1.43,7.71
15.946994066238403,-8.09,-1.69,-1.54,8.4
15.961617946624756,-8.7,-1.62,-1.36,8.95
15.966904878616333,-8.72,-1.68,-0.78,8.91
15.978130102157593,-8.21,-1.53,-0.1,8.35
15.986225843429565,-8.37,-1.64,0.58,8.54
15.996870994567871,-8.38,-1.87,1.05,8.65
16.01158308982849,-8.08,-2.14,1.3,8.45
16.01687216758728,-7.65,-2.51,1.12,8.12
16.02828288078308,-6.91,-2.98,0.6,7.54
16.036334991455078,-6.29,-3.24,-0.09,7.07
16.047137022018433,-6.07,-3.25,-0.9,6.94
16.061707019805908,-6.04,-3.34,-1.71,7.11
16.066995859146118,-5.91,-3.61,-2.42,7.33
16.07827591896057,-5.42,-3.74,-2.99,7.23
16.086393117904663,-5.25,-3.9,-3.21,7.28
16.096956968307495,-5.08,-4.11,-3.2,7.27
16.111618041992188,-4.68,-4.2,-3.01,6.97
16.116793870925903,-4.56,-4.25,-2.6,6.75
16.128326177597046,-4.59,-4.27,-2.22,6.65
16.13640284538269,-4.68,-4.23,-1.86,6.57
16.147144079208374,-4.76,-3.94,-1.47,6.35
16.16211199760437,-4.88,-3.64,-1.37,6.24
16.167368173599243,-5.38,-3.32,-1.24,6.44
16.178386926651,-5.92,-2.85,-1.05,6.65
16.186487913131714,-6.26,-2.39,-0.93,6.76
16.197148084640503,-5.99,-2.06,-0.53,6.35
16.211888074874878,-5.24,-1.73,-0.06,5.51
16.21718192100525,-4.58,-1.54,0.55,4.86
16.228433847427368,-4.44,-1.3,1.03,4.73
16.23647403717041,-4.59,-0.94,1.37,4.88
16.24732518196106,-4.73,-0.39,1.64,5.02
16.261854887008667,-5.23,0.24,1.73,5.51
16.267078161239624,-5.83,1.03,1.62,6.13
16.278357982635498,-5.93,1.73,1.64,6.39
16.28660798072815,-5.14,2.45,1.45,5.87
16.297183990478516,-4.52,2.83,0.93,5.41
16.312008142471313,-4.13,3.01,-0.04,5.11
16.317227125167847,-3.2,3.47,-0.54,4.75
16.328469038009644,-2.18,4.01,-0.62,4.6
16.336596965789795,-1.31,4.41,-1.03,4.71
16.347201108932495,-1.18,4.93,-1.24,5.21
16.361958026885986,-1.27,5.18,-0.94,5.41
16.36714816093445,-0.87,4.77,-0.84,4.92
16.37837815284729,0.08,4.43,-0.31,4.44
16.386561155319214,0.92,4.42,0.5,4.54
16.397318124771118,1.43,4.51,0.8,4.79
16.412013053894043,1.51,4.9,0.9,5.2
16.4172420501709,1.68,5.22,1.1,5.59
16.428426027297974,2.64,5.1,1.09,5.84
16.43658995628357,3.87,5.05,1.28,6.48
16.447370052337646,4.67,5.29,1.67,7.25
16.462077856063843,4.98,5.21,1.88,7.44
16.467265844345093,4.88,5.02,1.92,7.25
16.478621006011963,5.02,4.99,2.08,7.37
16.486625909805298,5.37,5.03,2.39,7.73
16.497408151626587,5.51,4.97,2.72,7.9
16.51211190223694,5.61,4.58,2.88,7.79
16.51735806465149,5.92,4.34,3.07,7.95
16.528624057769775,6.38,4.47,3.47,8.52
16.536723852157593,6.61,4.67,3.55,8.83
16.547393083572388,6.37,4.81,3.4,8.67
16.56216597557068,6.0,4.95,3.21,8.41
16.56743097305298,6.29,4.93,2.98,8.52
16.578665018081665,6.49,4.55,2.35,8.26
16.586732149124146,6.53,4.0,1.71,7.84
16.597447156906128,6.76,3.43,1.19,7.67
16.612138986587524,6.88,2.88,0.81,7.5
16.61731195449829,6.65,2.71,0.83,7.22
16.628633975982666,6.2,2.84,1.18,6.92
16.636759042739868,6.03,3.0,1.42,6.88
16.6475670337677,5.22,2.73,1.84,6.17
16.66218113899231,5.25,2.99,2.52,6.54
16.667412042617798,5.36,3.58,2.05,6.76
16.678648948669434,5.64,3.82,2.29,7.18
16.68676209449768,4.69,4.04,2.39,6.63
16.697484016418457,4.2,4.56,2.81,6.8
16.71222996711731,3.82,4.79,2.51,6.62
16.717442989349365,4.35,4.68,1.98,6.68
16.7287700176239,5.0,4.73,1.81,7.11
16.73691701889038,5.3,5.07,1.69,7.52
16.74759602546692,4.8,5.83,1.39,7.67
16.762470960617065,3.47,6.43,1.08,7.38
16.767717123031616,2.38,6.27,1.11,6.79
16.77860713005066,1.43,6.48,1.75,6.86
16.786866903305054,0.32,7.51,2.93,8.06
16.797610998153687,-1.29,8.1,3.33,8.85
16.812469005584717,-2.67,7.82,2.54,8.64
16.817726850509644,-2.66,6.98,1.42,7.6
16.82871413230896,-2.05,5.59,0.5,5.97
16.836987018585205,-1.54,3.86,-0.11,4.15
16.847657918930054,-1.44,2.03,-0.24,2.5
16.86255383491516,-1.88,0.63,0.18,1.99
16.86778497695923,-2.52,0.3,0.82,2.66
16.878793001174927,-3.65,0.13,0.71,3.72
16.88703203201294,-5.39,-0.14,-0.37,5.4
16.89781904220581,-6.49,-0.56,-1.34,6.65
16.912501096725464,-6.96,-1.45,-1.86,7.34
16.91784405708313,-6.8,-2.38,-2.13,7.51
16.92881989479065,-6.15,-3.24,-2.01,7.23
16.937119007110596,-5.51,-3.9,-1.94,7.02
16.94749093055725,-5.69,-4.47,-1.94,7.49
16.96259093284607,-6.39,-4.86,-1.93,8.25
16.96791386604309,-7.47,-4.91,-1.75,9.1
16.978996992111206,-8.07,-5.02,-1.34,9.59
16.986862897872925,-8.3,-5.19,-1.1,9.85
16.99766182899475,-8.66,-5.21,-0.74,10.13
17.012553930282593,-8.72,-5.22,-0.21,10.16
17.017789125442505,-8.6,-5.1,0.01,9.99
17.029060125350952,-8.7,-4.83,0.07,9.95
17.037147045135498,-8.97,-4.37,-0.12,9.97
17.04775905609131,-9.09,-3.87,-0.43,9.88
17.062598943710327,-8.97,-3.46,-0.74,9.64
17.06782102584839,-8.54,-3.38,-1.08,9.24
17.078902006149292,-7.85,-3.49,-1.3,8.68
17.08701205253601,-7.16,-3.5,-1.36,8.08
17.09784483909607,-6.78,-3.37,-1.5,7.71
17.112571001052856,-6.57,-3.28,-1.76,7.55
17.117761850357056,-6.69,-3.03,-2.3,7.69
17.12899613380432,-6.61,-2.72,-2.75,7.65
17.137212991714478,-6.24,-2.61,-3.17,7.46
17.14791202545166,-5.9,-2.51,-3.53,7.31
17.16275191307068,-5.42,-2.07,-3.57,6.81
17.167957067489624,-5.23,-1.5,-3.42,6.42
17.179115056991577,-5.35,-0.88,-3.32,6.35
17.18718695640564,-5.55,-0.58,-3.02,6.34
17.19800591468811,-5.68,-0.52,-2.74,6.32
17.212790966033936,-5.66,-0.59,-2.4,6.17
17.21808099746704,-5.38,-0.81,-1.68,5.69
17.229168176651,-5.04,-0.98,-1.06,5.24
17.237326860427856,-4.58,-0.68,-0.39,4.64
17.24800992012024,-3.92,-0.08,0.32,3.93
17.262619972229004,-3.75,0.82,0.87,3.93
17.267598867416382,-3.75,1.76,1.56,4.42
17.279070138931274,-3.94,2.57,1.83,5.04
17.287214994430542,-4.18,3.27,1.63,5.55
17.298084020614624,-3.68,3.98,1.48,5.61
17.313050985336304,-2.58,4.16,0.97,4.99
17.318272829055786,-1.29,4.04,0.67,4.29
17.329219102859497,-0.23,3.98,0.91,4.08
17.337365865707397,0.1,3.7,1.24,3.9
17.347838163375854,0.0,3.42,1.89,3.9
17.36271905899048,0.28,3.27,2.47,4.1
17.367926836013794,0.26,3.16,2.77,4.21
17.379138946533203,0.58,2.9,2.85,4.1
17.387398958206177,1.5,2.47,2.65,3.92
17.398144006729126,2.24,2.22,2.55,4.05
17.412853002548218,2.41,2.17,2.6,4.15
17.4180691242218,1.86,2.91,0.92,3.57
17.4292209148407,2.65,4.39,0.75,5.18
17.437380075454712,4.94,3.05,4.7,7.46
17.4481360912323,4.6,1.01,5.01,6.87
17.462680101394653,3.3,0.11,3.23,4.61
17.46786618232727,3.98,0.84,2.69,4.87
17.47934103012085,5.44,2.58,3.42,6.92
17.48747205734253,5.7,3.74,3.71,7.76
17.49815797805786,5.49,4.14,2.58,7.34
17.512696027755737,5.68,4.63,1.37,7.45
17.517997980117798,6.23,5.07,0.45,8.04
17.529391050338745,7.1,5.0,0.63,8.7
17.537474870681763,7.64,5.07,0.84,9.2
17.54816699028015,8.11,5.59,1.21,9.92
17.562505960464478,8.13,5.86,1.52,10.13
17.567508935928345,8.13,5.22,1.97,9.86
17.57941699028015,8.21,4.24,2.81,9.65
17.587530851364136,8.46,3.68,3.33,9.8
17.59820294380188,8.28,3.28,3.44,9.54
17.612644910812378,7.44,3.08,3.52,8.78
17.617846965789795,6.83,3.02,3.58,8.28
17.62934899330139,6.53,3.13,3.91,8.22
17.63762593269348,6.55,3.06,3.99,8.25
17.64823603630066,6.52,2.71,3.59,7.92
17.6626398563385,6.48,2.18,3.21,7.55
17.667825937271118,6.39,1.95,2.88,7.27
17.679420948028564,5.95,1.9,2.63,6.77
17.687548875808716,5.03,2.08,2.69,6.07
17.69829297065735,3.63,3.01,2.65,5.4
17.712610006332397,2.63,3.45,2.13,4.83
17.717836141586304,2.38,3.4,1.48,4.4
17.729617834091187,2.89,3.3,1.13,4.52
17.73794388771057,3.5,3.06,0.43,4.66
17.74834704399109,3.72,2.69,-0.36,4.6
17.76250910758972,3.5,2.72,-0.5,4.46
17.767750024795532,2.51,3.39,-0.42,4.23
17.77959704399109,0.53,4.72,-0.36,4.76
17.78795313835144,-1.79,6.1,-0.01,6.35
17.798403024673462,-3.35,7.09,0.21,7.84
17.81256890296936,-3.77,7.19,0.5,8.13
17.817835092544556,-3.38,6.77,0.79,7.6
17.829591035842896,-3.68,6.39,0.97,7.43
17.83804488182068,-4.88,5.92,1.21,7.76
17.848479986190796,-5.57,5.1,1.47,7.69
17.862609148025513,-5.88,4.08,1.57,7.32
17.867829084396362,-6.06,3.04,1.48,6.93
17.87970995903015,-6.18,2.01,1.11,6.59
17.888123989105225,-6.34,1.05,0.51,6.44
17.898424863815308,-6.7,0.24,-0.17,6.7
17.912541151046753,-7.02,-0.48,-0.71,7.07
17.917813062667847,-7.06,-1.23,-1.13,7.25
17.929595947265625,-6.98,-1.97,-1.45,7.39
17.938153982162476,-6.88,-2.83,-1.77,7.64
17.94848895072937,-6.73,-3.65,-2.1,7.93
17.96254801750183,-6.97,-4.29,-2.25,8.48
17.967631101608276,-7.27,-4.79,-2.25,8.99
17.979711055755615,-7.28,-5.29,-2.13,9.24
17.988138914108276,-7.09,-5.79,-2.07,9.38
17.998465061187744,-6.76,-6.18,-2.09,9.39
18.01266884803772,-6.29,-6.61,-2.12,9.36
18.018346071243286,-5.91,-7.1,-2.17,9.48
18.030060052871704,-6.1,-7.22,-2.2,9.7
18.03840184211731,-6.96,-6.98,-2.11,10.08
18.0487699508667,-7.46,-6.83,-2.24,10.35
18.062530040740967,-6.58,-6.61,-2.52,9.66
18.067747831344604,-5.38,-6.37,-2.68,8.75
18.07969903945923,-4.41,-6.17,-2.75,8.06
18.088163137435913,-4.5,-5.79,-2.8,7.84
18.098526000976562,-4.79,-5.28,-2.71,7.62
18.11251711845398,-4.69,-4.87,-2.4,7.17
18.117780923843384,-4.52,-4.24,-1.73,6.43
18.12977695465088,-4.22,-3.4,-0.64,5.45
18.138234853744507,-4.67,-2.77,0.12,5.43
18.148624181747437,-6.12,-1.83,0.28,6.39
18.16240906715393,-8.3,-0.99,0.52,8.37
18.16758418083191,-8.85,0.06,0.68,8.87
18.179921865463257,-7.66,1.02,0.96,7.78
18.188305139541626,-6.16,1.66,1.1,6.47
18.198737859725952,-5.04,1.64,0.65,5.33
18.21280312538147,-4.43,1.3,0.14,4.61
18.218062162399292,-4.28,1.39,-0.28,4.5
18.229864835739136,-4.81,1.48,-0.63,5.07
18.23834204673767,-5.46,1.41,-0.68,5.67
18.248919010162354,-5.0,1.65,-0.25,5.27
18.262410879135132,-3.92,2.23,0.22,4.51
18.267648935317993,-3.09,2.43,0.2,3.93
18.280039072036743,-2.55,2.4,-0.22,3.5
18.288469076156616,-2.23,2.36,-0.72,3.32
18.298733949661255,-2.43,2.41,-1.15,3.61
18.3125741481781,-2.45,2.37,-1.36,3.67
18.31808590888977,-1.93,2.12,-1.65,3.3
18.329933881759644,-1.25,1.87,-1.73,2.83
18.33848214149475,-0.48,1.71,-1.43,2.28
18.348773956298828,0.11,1.48,-0.96,1.76
18.362426042556763,0.17,1.46,-0.53,1.56
18.36764693260193,0.08,1.83,-0.16,1.83
18.37996196746826,-0.12,2.2,0.12,2.2
18.38852095603943,-0.9,2.44,0.23,2.61
18.398863077163696,-1.69,2.85,0.16,3.31
18.412402868270874,-1.61,2.77,0.15,3.2
18.41763710975647,-0.9,2.71,0.44,2.88
18.430076837539673,0.81,3.2,0.92,3.42
18.438575983047485,2.18,3.96,1.69,4.82
18.44890809059143,2.63,4.38,2.26,5.58
18.46229910850525,2.4,4.73,2.74,5.96
18.46745204925537,1.84,5.34,3.1,6.44
18.480041027069092,1.38,6.18,3.06,7.03
18.488506078720093,1.15,7.11,2.79,7.72
18.498913049697876,0.67,7.97,2.4,8.35
18.51236605644226,0.46,8.54,1.97,8.77
18.517593145370483,0.65,8.8,1.83,9.01
18.5301730632782,1.33,9.56,1.8,9.81
18.538613080978394,2.42,9.92,1.75,10.35
18.549007177352905,3.13,10.04,1.74,10.65
18.562417030334473,3.04,10.18,1.72,10.76
18.567731142044067,2.43,10.26,1.65,10.67
18.580414056777954,2.18,10.31,1.35,10.62
18.588678121566772,2.17,10.41,0.95,10.67
18.599022150039673,2.01,10.12,0.67,10.33
18.612339973449707,1.73,9.33,0.47,9.5
18.61768102645874,1.76,8.59,0.42,8.77
18.63018488883972,2.02,8.01,0.82,8.3
18.638740062713623,1.91,7.21,1.35,7.57
18.649100065231323,1.35,6.52,1.78,6.89
18.662297010421753,0.35,5.99,2.53,6.51
18.66772699356079,-0.54,5.85,3.11,6.64
18.680387020111084,-1.38,6.12,3.45,7.15
18.688874006271362,-2.02,6.09,3.23,7.18
18.699133157730103,-2.79,5.83,2.44,6.9
18.71222710609436,-3.96,5.32,1.37,6.77
18.71783185005188,-5.11,4.4,0.2,6.74
18.730273962020874,-5.39,3.54,-0.71,6.48
18.738712072372437,-4.42,2.91,-1.12,5.4
18.749040842056274,-3.09,2.44,-0.89,4.03
18.762276887893677,-2.26,1.66,-0.99,2.97
18.76771092414856,-1.64,0.47,-0.98,1.96
18.780303955078125,-0.87,-0.76,-1.18,1.65
18.788980960845947,-0.64,-1.6,-1.54,2.31
18.799100160598755,-0.81,-2.1,-1.29,2.59
18.812379121780396,-1.0,-1.88,-0.24,2.14
18.817888021469116,-1.16,-1.04,1.63,2.25
18.830302953720093,-1.65,0.13,3.26,3.65
18.83885407447815,-2.18,1.3,3.51,4.33
18.8490731716156,-2.5,1.35,1.73,3.32
18.86225390434265,-3.57,1.06,0.11,3.72
18.867818117141724,-3.99,1.26,-0.08,4.18
18.88044285774231,-4.05,1.1,0.27,4.2
18.88894486427307,-4.55,0.56,0.43,4.6
18.89918303489685,-5.75,0.1,0.37,5.76
18.91223406791687,-7.03,-0.01,0.5,7.04
18.917929887771606,-7.07,0.02,0.88,7.12
18.930350065231323,-6.5,-0.43,1.08,6.6
18.93899703025818,-5.9,-1.17,0.88,6.07
18.949278116226196,-5.53,-1.39,0.54,5.72
18.962311029434204,-5.94,-1.51,0.01,6.12
18.96793794631958,-6.85,-1.87,-0.68,7.13
18.980587005615234,-7.17,-2.41,-0.97,7.62
18.988935947418213,-6.91,-2.92,-0.79,7.54
18.999246835708618,-6.62,-3.45,-0.53,7.48
19.012258052825928,-6.73,-4.1,-0.55,7.89
19.018036127090454,-6.98,-4.63,-0.66,8.4
19.030545949935913,-7.53,-4.94,-0.61,9.02
19.039128065109253,-7.8,-5.1,-0.9,9.36
19.04933190345764,-7.12,-5.06,-1.44,8.85
19.062217950820923,-6.2,-5.28,-2.03,8.39
19.068019151687622,-6.12,-5.48,-2.49,8.58
19.080605030059814,-6.46,-5.7,-2.73,9.03
19.089173078536987,-6.4,-6.02,-2.46,9.12
19.099344968795776,-6.69,-6.0,-2.05,9.21
19.112159967422485,-7.06,-5.65,-1.87,9.23
19.118155002593994,-7.02,-5.52,-1.81,9.11
19.1306049823761,-6.65,-5.51,-1.85,8.83
19.139091968536377,-6.08,-5.13,-1.75,8.14
19.149359941482544,-5.75,-4.77,-1.17,7.56
19.16207194328308,-5.74,-4.22,-0.53,7.14
19.168056964874268,-5.5,-3.45,-0.52,6.51
19.18059802055359,-5.95,-2.62,-0.64,6.53
19.18918013572693,-6.35,-1.64,-0.83,6.61
19.199415922164917,-6.86,-0.88,-1.31,7.03
19.212568998336792,-6.95,-0.53,-1.75,7.18
19.218135118484497,-5.89,-0.39,-1.72,6.14
19.230762004852295,-4.87,0.21,-1.46,5.08
19.239272832870483,-3.97,0.67,-1.27,4.22
19.24949288368225,-3.28,1.09,-1.29,3.68
19.262137174606323,-3.22,1.85,-1.44,3.98
19.268242120742798,-3.21,2.48,-1.66,4.38
19.280615091323853,-3.41,3.54,-2.03,5.31
19.28922200202942,-3.57,4.57,-2.34,6.25
19.299427032470703,-3.3,4.5,-2.82,6.25
19.312124967575073,-2.52,4.23,-2.93,5.72
19.318331956863403,-1.01,4.47,-2.26,5.1
19.330715894699097,0.15,4.92,-1.23,5.07
19.339239835739136,0.71,5.09,-0.52,5.16
19.349537134170532,0.66,4.88,-0.29,4.93
19.362123012542725,0.38,4.82,-0.07,4.83
19.36816716194153,0.0,5.06,0.73,5.11
19.38083815574646,-0.01,5.57,1.32,5.72
19.389281034469604,-0.96,6.32,1.34,6.53
19.399621963500977,-2.18,7.07,2.56,7.82
19.412098169326782,-0.03,6.61,3.25,7.36
19.418349981307983,2.14,6.12,2.95,7.12
19.43094301223755,1.67,6.01,2.98,6.91
19.439282178878784,0.96,5.72,3.25,6.64
19.44965100288391,1.35,5.81,3.19,6.76
19.462103128433228,1.49,6.59,3.53,7.62
19.468472003936768,0.71,6.86,5.35,8.72
19.4807231426239,0.86,7.95,6.59,10.36
19.489320039749146,1.16,8.54,6.54,10.81
19.499565839767456,1.04,8.49,6.02,10.45
19.511971950531006,1.39,8.61,5.6,10.36
19.518420934677124,2.31,8.63,5.35,10.41
19.53081703186035,2.78,8.63,4.97,10.33
19.539117097854614,2.78,8.3,4.73,9.94
19.54960799217224,2.96,8.02,4.4,9.61
19.561944007873535,3.08,7.97,4.21,9.52
19.568356037139893,2.96,8.06,3.94,9.44
19.580796003341675,2.64,8.16,3.47,9.25
19.58932399749756,2.54,8.49,2.95,9.33
19.599756956100464,2.73,8.81,2.09,9.45
19.612094163894653,2.74,8.71,1.23,9.21
19.61855912208557,2.58,8.99,0.77,9.38
19.630949020385742,2.45,9.42,0.48,9.74
19.639371156692505,1.84,9.58,0.39,9.76
19.649874925613403,0.97,9.33,-0.05,9.38
19.661946058273315,0.75,8.33,-0.48,8.37
19.668465852737427,0.46,7.72,0.78,7.77
19.681079149246216,-1.38,8.0,3.67,8.9
19.689366102218628,-2.97,7.31,4.11,8.89
19.699878931045532,-2.58,5.35,3.61,6.95
19.711949110031128,-1.64,3.99,3.16,5.34
19.718621969223022,-2.43,3.74,2.99,5.36
19.731073141098022,-3.16,3.15,3.11,5.43
19.739350080490112,-3.65,2.68,3.0,5.43
19.74990487098694,-4.63,2.33,2.73,5.85
19.761916875839233,-5.83,2.02,1.48,6.34
19.768579959869385,-6.42,1.7,-0.99,6.71
19.78126883506775,-6.68,0.87,-3.14,7.43
19.78942894935608,-6.9,-0.27,-4.4,8.18
19.79991102218628,-7.07,-1.59,-4.82,8.7
19.81191897392273,-7.39,-2.76,-4.22,8.94
19.818690061569214,-7.21,-3.5,-3.08,8.58
19.83109998703003,-6.31,-4.13,-1.94,7.78
19.83943200111389,-4.46,-4.24,-0.71,6.19
19.84994602203369,-3.09,-3.81,0.39,4.92
19.862077951431274,-2.89,-2.97,0.64,4.19
19.868580102920532,-4.33,-1.93,-0.17,4.74
19.881113052368164,-6.74,-1.35,-1.33,7.0
19.889467000961304,-8.85,-1.47,-2.29,9.25
19.899922132492065,-9.55,-1.78,-2.86,10.12
19.912008047103882,-9.62,-1.96,-2.62,10.16
19.918864965438843,-8.56,-1.78,-1.03,8.8
19.93113112449646,-7.39,-1.73,1.03,7.65
19.939295053482056,-7.13,-1.89,2.05,7.65
19.950037002563477,-7.33,-2.02,1.78,7.8
19.961901903152466,-7.77,-2.32,0.99,8.16
19.968600034713745,-7.75,-2.48,0.24,8.14
19.981003046035767,-7.56,-2.48,-0.51,7.97
19.989338159561157,-7.4,-2.73,-1.41,8.01
19.9999680519104,-7.46,-3.06,-1.76,8.25
20.011901140213013,-7.06,-3.32,-1.68,7.98
20.01877498626709,-6.49,-3.52,-1.56,7.54
20.03147292137146,-6.4,-3.79,-1.79,7.65
20.039395093917847,-6.17,-4.03,-2.21,7.69
20.05027985572815,-5.83,-4.22,-2.49,7.61
20.06185507774353,-5.7,-4.28,-2.64,7.6
20.068877935409546,-6.08,-4.09,-2.56,7.76
20.081406831741333,-6.79,-3.79,-2.19,8.07
20.089450120925903,-7.04,-3.62,-1.88,8.13
20.10020089149475,-6.86,-3.72,-1.66,7.97
20.11188292503357,-6.28,-4.08,-1.35,7.6
20.118890047073364,-5.4,-4.29,-0.97,6.96
20.131317853927612,-4.63,-4.4,-0.7,6.42
20.139389991760254,-4.51,-4.45,-0.5,6.35
20.15025496482849,-4.86,-4.34,-0.19,6.51
20.161731958389282,-5.12,-4.11,-0.03,6.56
20.168781042099,-5.09,-3.93,-0.09,6.43
20.18148112297058,-4.87,-3.92,-0.39,6.26
20.189500093460083,-4.92,-4.15,-0.74,6.47
20.20013689994812,-5.21,-4.08,-0.96,6.68
20.212023973464966,-5.11,-3.16,-0.73,6.05
20.21891188621521,-4.92,-2.02,0.17,5.32
20.23149085044861,-4.57,-1.0,0.85,4.75
20.239545106887817,-4.05,0.73,1.14,4.27
20.250323057174683,-3.79,2.42,1.18,4.64
20.26196789741516,-4.0,3.48,0.43,5.31
20.268830060958862,-4.18,4.41,-0.79,6.12
20.281583070755005,-3.82,5.15,-1.7,6.63
20.289566040039062,-3.89,5.72,-2.38,7.31
20.3002610206604,-3.99,6.1,-2.83,7.81
20.311722993850708,-3.84,6.34,-2.83,7.93
20.31912112236023,-3.01,6.45,-2.53,7.55
20.331734895706177,-2.32,6.48,-2.28,7.25
20.339619874954224,-2.02,6.51,-2.19,7.15
20.35039210319519,-1.52,6.53,-2.52,7.16
20.361881971359253,-0.91,6.06,-2.91,6.78
20.36896800994873,-0.02,5.37,-2.47,5.91
20.38157606124878,0.54,4.86,-1.5,5.11
20.38967800140381,1.3,4.92,-1.49,5.3
20.40037703514099,1.43,4.56,-1.44,4.99
20.411946058273315,1.85,4.31,-0.48,4.71
20.419065952301025,2.28,4.03,-0.22,4.63
20.431668043136597,2.7,4.08,0.97,4.98
20.439537048339844,3.46,4.14,2.02,5.76
20.450333833694458,3.11,3.56,2.43,5.31
20.461637020111084,2.84,4.06,2.72,5.65
20.468990087509155,3.13,4.85,3.22,6.6
20.481410026550293,3.02,5.73,3.44,7.33
20.48965811729431,3.08,6.67,3.85,8.29
20.500312089920044,3.27,7.75,4.06,9.34
20.511862993240356,3.62,8.56,4.08,10.15
20.518929958343506,4.08,9.09,4.0,10.73
20.531512022018433,4.63,9.46,4.0,11.26
20.539634943008423,4.91,9.68,4.14,11.61
20.550498008728027,5.0,9.99,4.24,11.94
20.562098026275635,5.03,10.15,3.92,11.98
20.56896185874939,4.98,10.15,3.27,11.76
20.581642866134644,4.87,10.18,2.49,11.55
20.589818954467773,4.84,10.19,1.85,11.43
20.60039496421814,5.23,10.16,1.39,11.51
20.611912965774536,5.49,10.03,1.03,11.48
20.619163036346436,5.25,9.5,1.02,10.9
20.63167405128479,4.77,8.73,1.5,10.06
20.63981795310974,4.38,7.93,2.39,9.36
20.650562047958374,3.85,7.03,3.5,8.74
20.66211700439453,3.11,6.11,4.38,8.13
20.669184923171997,2.61,5.39,4.68,7.6
20.681790113449097,2.89,4.93,4.35,7.18
20.689985036849976,2.61,4.28,3.68,6.21
20.700554132461548,1.81,3.91,2.81,5.14
20.712170839309692,1.47,4.21,2.43,5.07
20.719266176223755,1.28,4.93,2.18,5.54
20.731722116470337,0.5,5.43,1.17,5.57
20.74000096321106,-0.87,5.25,-0.05,5.32
20.750646829605103,-2.42,4.57,-0.99,5.26
20.762128114700317,-3.01,3.63,-1.45,4.93
20.769274950027466,-3.17,2.67,-1.5,4.4
20.781929969787598,-3.2,1.73,-1.23,3.84
20.79012417793274,-3.36,1.17,-0.86,3.66
20.800714015960693,-3.81,0.9,-0.81,3.99
20.812334060668945,-4.31,0.95,-0.76,4.47
20.819761991500854,-4.59,1.49,-0.52,4.85
20.831836938858032,-5.17,1.83,-0.68,5.52
20.84018301963806,-6.4,1.62,-1.36,6.74
20.8507878780365,-7.58,1.26,-1.48,7.82
20.862375020980835,-8.38,0.71,-1.12,8.48
20.869658946990967,-9.16,-0.06,-0.69,9.18
20.88192391395569,-9.43,-0.77,-0.16,9.46
20.89012598991394,-9.11,-1.57,0.42,9.25
20.900720834732056,-8.59,-2.05,1.05,8.89
20.912394046783447,-7.99,-2.14,1.44,8.39
20.91985011100769,-7.64,-2.44,1.65,8.18
20.93186593055725,-7.5,-2.83,1.4,8.13
20.940196990966797,-7.77,-3.32,0.52,8.46
20.950873136520386,-8.28,-3.35,-0.54,8.94
20.962509870529175,-8.91,-2.86,-1.4,9.46
20.969702005386353,-9.13,-2.77,-1.91,9.73
20.98206901550293,-8.7,-3.26,-2.23,9.55
20.990319967269897,-7.69,-3.64,-2.5,8.86
21.00080895423889,-6.54,-3.78,-2.68,8.01
21.012487173080444,-6.56,-3.88,-2.72,8.09
21.019943952560425,-6.97,-4.1,-2.86,8.57
21.03210186958313,-6.87,-4.58,-2.92,8.75
21.04030704498291,-6.43,-4.96,-2.67,8.54
21.05086398124695,-5.93,-5.1,-2.29,8.14
21.06237006187439,-5.93,-4.92,-1.99,7.95
21.069905996322632,-6.64,-4.65,-1.87,8.31
21.08213210105896,-7.11,-4.52,-1.74,8.6
21.090319871902466,-7.26,-4.27,-1.71,8.59
21.100927114486694,-7.15,-3.92,-1.34,8.26
21.1126229763031,-6.54,-3.58,-0.59,7.47
21.120056867599487,-5.79,-2.98,0.39,6.52
21.132202863693237,-5.34,-2.44,1.21,5.99
21.140378952026367,-5.24,-2.22,1.59,5.9
21.1509850025177,-5.62,-2.07,1.44,6.15
21.16266703605652,-5.8,-2.04,1.15,6.25
21.16989803314209,-5.91,-2.03,0.92,6.31
21.18221116065979,-5.68,-1.88,0.03,5.98
21.19041895866394,-6.02,-2.21,-1.06,6.49
21.20102596282959,-6.69,-2.69,-1.6,7.38
21.21271014213562,-7.14,-2.34,-1.79,7.72
21.22006583213806,-6.35,-1.32,-1.56,6.67
21.232131958007812,-4.75,-0.44,-1.08,4.89
21.24045205116272,-2.91,0.45,-1.05,3.12
21.25113296508789,-1.67,1.09,-1.57,2.53
21.26302194595337,-1.45,1.96,-2.13,3.23
21.270076036453247,-1.85,3.03,-2.31,4.23
21.282124042510986,-2.53,4.14,-2.18,5.31
21.29041314125061,-2.81,5.23,-1.85,6.21
21.301054000854492,-3.33,5.96,-1.66,7.02
21.31261706352234,-4.12,6.19,-1.51,7.58
21.320335149765015,-3.6,6.24,-1.18,7.3
21.332340955734253,-2.28,6.25,-0.45,6.66
21.340314149856567,-0.7,6.18,-0.06,6.21
21.351096868515015,1.07,5.77,0.92,5.94
21.362676858901978,1.89,5.35,1.08,5.77
21.37002396583557,2.33,5.32,1.33,5.95
21.382256031036377,3.07,5.63,1.09,6.5
21.390384912490845,3.79,5.76,1.38,7.03
21.401139974594116,4.25,6.59,0.19,7.84
21.41296410560608,4.46,6.54,0.54,7.93
21.42009711265564,3.53,6.2,0.64,7.16
21.432225942611694,3.85,6.82,0.75,7.86
21.440478086471558,5.23,7.53,1.04,9.22
21.451206922531128,5.98,8.07,1.43,10.14
21.462913990020752,6.24,8.17,2.36,10.54
21.47014307975769,6.26,8.11,2.45,10.53
21.482250928878784,5.98,8.3,2.41,10.5
21.490365982055664,5.97,8.6,2.37,10.73
21.501149892807007,5.81,8.88,2.4,10.87
21.512907028198242,5.5,9.09,2.74,10.97
21.520167112350464,5.19,8.92,3.02,10.75
21.53245496749878,4.94,8.41,2.87,10.16
21.54054093360901,5.13,7.76,2.83,9.72
21.55125594139099,5.65,7.29,3.06,9.71
21.56300401687622,5.56,6.7,3.26,9.29
21.570191144943237,4.83,6.03,3.51,8.48
21.582468032836914,3.91,5.53,3.64,7.68
21.590562105178833,3.13,4.84,3.57,6.77
21.60122513771057,2.69,4.11,3.62,6.1
21.612841844558716,2.98,4.05,2.26,5.51
21.620312929153442,4.26,4.64,1.34,6.43
21.63249182701111,3.76,4.41,0.83,5.85
21.640578985214233,1.61,3.8,0.62,4.17
21.65129590034485,0.59,3.46,0.87,3.61
21.66307497024536,1.35,3.38,1.15,3.81
21.670382022857666,2.62,3.4,0.97,4.4
21.682552099227905,2.61,3.22,0.1,4.14
21.69073510169983,2.05,3.13,-0.52,3.77
21.701488971710205,1.73,3.43,-0.87,3.93
21.713297128677368,1.39,3.15,-1.28,3.67
21.720456838607788,1.25,2.38,-1.55,3.1
21.732594966888428,1.12,1.99,-1.59,2.78
21.740710973739624,-0.11,2.54,-1.11,2.77
21.75142216682434,-1.98,3.42,-0.39,3.97
21.763214826583862,-2.62,3.94,-0.05,4.73
21.770450830459595,-2.87,4.1,-0.55,5.03
21.782600164413452,-3.47,3.86,-1.09,5.3
21.79073214530945,-3.98,3.49,-1.46,5.49
21.801331043243408,-4.6,3.06,-1.53,5.73
21.8131000995636,-4.72,2.39,-1.29,5.44
21.82025408744812,-4.72,1.65,-0.87,5.07
21.83259105682373,-5.19,1.09,-0.3,5.31
21.84077286720276,-6.3,0.75,0.18,6.34
21.85141396522522,-7.38,0.27,0.25,7.38
21.86326003074646,-8.13,-0.41,-0.11,8.14
21.870460987091064,-8.51,-1.06,-0.42,8.58
21.882575035095215,-8.96,-1.62,-0.59,9.12
21.890846014022827,-9.04,-2.15,-0.76,9.32
21.90150809288025,-8.64,-2.72,-0.79,9.09
21.91334104537964,-8.01,-3.2,-0.87,8.66
21.920570135116577,-7.35,-3.56,-0.88,8.21
21.932556867599487,-7.01,-3.8,-0.77,8.01
21.941025018692017,-7.04,-3.94,-0.79,8.1
21.95151686668396,-7.06,-4.08,-1.09,8.22
21.96349596977234,-7.1,-4.22,-1.37,8.37
21.97078585624695,-7.32,-4.31,-1.71,8.66
21.98267388343811,-7.49,-4.62,-1.92,9.0
21.990845918655396,-7.17,-5.09,-1.99,9.01
22.00148892402649,-6.7,-5.52,-1.9,8.88
22.013412952423096,-6.1,-5.82,-1.89,8.64
22.020655870437622,-5.51,-5.98,-1.81,8.33
22.03265905380249,-5.36,-5.97,-1.64,8.18
22.041018962860107,-5.39,-5.79,-1.46,8.04
22.051599979400635,-5.33,-5.39,-1.26,7.68
22.0634548664093,-5.37,-4.77,-1.0,7.25
22.070762872695923,-5.57,-3.97,-0.54,6.86
22.082690954208374,-5.85,-3.36,-0.2,6.74
22.09096884727478,-6.07,-3.22,-0.08,6.87
22.101624011993408,-6.3,-3.44,0.23,7.18
22.1135151386261,-6.0,-3.52,0.56,6.97
22.120532989501953,-5.07,-3.29,1.03,6.13
22.13279700279236,-4.23,-2.53,1.22,5.07
22.141032934188843,-3.7,-1.73,1.12,4.23
22.151641130447388,-3.93,-0.91,0.93,4.13
22.163578987121582,-4.87,-0.12,0.59,4.9
22.170768976211548,-5.7,0.44,0.28,5.72
22.18274712562561,-5.66,0.83,0.11,5.72
22.191009998321533,-5.12,0.92,0.05,5.2
22.201690912246704,-4.61,1.11,-0.04,4.74
22.21364998817444,-4.31,1.81,-0.03,4.67
22.22048306465149,-3.87,2.71,0.23,4.73
22.23280096054077,-3.4,3.5,0.25,4.88
22.241111040115356,-3.25,3.85,0.07,5.03
22.251747846603394,-3.46,4.04,-0.05,5.31
22.264168977737427,-3.55,4.36,0.11,5.62
22.27062702178955,-3.49,4.66,0.37,5.83
22.282912969589233,-3.21,4.91,0.31,5.87
22.291102170944214,-2.44,4.77,-0.26,5.36
22.30210304260254,-1.28,4.93,-1.59,5.33
22.31174397468567,0.56,5.29,-2.4,5.83
22.326426029205322,1.2,4.73,-2.66,5.55
22.332946062088013,1.02,3.98,-3.28,5.25
22.341317892074585,1.83,4.33,-2.61,5.37
22.352165937423706,2.05,2.77,-1.76,3.86
22.361942052841187,1.09,1.89,-1.58,2.69
22.37637209892273,1.54,3.53,-1.78,4.24
22.3829128742218,2.39,5.01,-0.66,5.58
22.39117407798767,2.0,4.85,-0.62,5.28
22.40208101272583,2.0,5.64,-0.97,6.06
22.411798000335693,2.4,4.87,-0.57,5.45
22.426326990127563,3.14,4.48,-0.56,5.49
22.4329731464386,4.48,4.97,-0.76,6.73
22.44125485420227,5.5,5.56,-0.08,7.82
22.45228409767151,6.0,5.8,0.44,8.35
22.462013959884644,6.12,6.5,0.59,8.94
22.476433992385864,5.3,7.07,0.29,8.84
22.483067989349365,3.72,6.93,0.33,7.87
22.49127507209778,2.12,6.71,1.49,7.19
22.502357006072998,1.32,7.19,1.77,7.52
22.51187491416931,2.13,7.89,2.65,8.59
22.5263831615448,3.22,8.16,3.17,9.32
22.533045053482056,4.05,8.04,2.98,9.48
22.54135799407959,4.75,7.7,2.77,9.46
22.552325963974,4.85,7.28,2.7,9.15
22.56209897994995,4.47,7.17,2.49,8.8
22.576403856277466,4.05,6.88,2.57,8.38
22.583075046539307,3.74,6.49,2.84,8.01
22.59134316444397,3.46,6.13,3.25,7.75
22.602379083633423,3.08,5.78,3.54,7.44
22.612158060073853,3.03,5.23,3.69,7.08
22.62636113166809,2.95,4.54,3.74,6.58
22.63318395614624,2.02,4.3,3.33,5.8
22.641626119613647,1.91,5.36,2.06,6.05
22.65235996246338,4.0,7.6,2.6,8.97
22.66209387779236,2.95,7.64,2.11,8.45
22.67628002166748,2.31,7.32,1.37,7.79
22.68317484855652,2.29,6.78,1.83,7.38
22.691401958465576,0.81,6.24,0.98,6.36
22.702519178390503,0.36,5.57,-0.44,5.59
22.711981058120728,-0.06,5.02,-1.44,5.22
22.72661304473877,-1.19,4.3,-2.24,4.99
22.733509063720703,-1.78,3.79,-2.18,4.72
22.741719961166382,-2.7,3.6,-1.61,4.77
22.75254511833191,-3.76,3.22,-0.82,5.01
22.762183904647827,-4.43,2.67,0.08,5.17
22.7761709690094,-4.76,1.6,0.64,5.06
22.78330683708191,-5.24,0.37,1.23,5.39
22.791529893875122,-5.72,-0.21,1.79,5.99
22.802618980407715,-6.43,-0.26,2.15,6.78
22.81208896636963,-6.9,-0.15,2.22,7.24
22.826168060302734,-7.4,0.07,1.95,7.65
22.83326506614685,-7.45,-0.02,1.28,7.55
22.841521978378296,-7.0,-0.52,0.61,7.04
22.85257315635681,-6.2,-0.84,0.19,6.25
22.862469911575317,-5.78,-0.89,-0.22,5.85
22.87618613243103,-6.03,-0.93,-0.74,6.14
22.88343095779419,-6.18,-1.03,-0.87,6.32
22.89161992073059,-6.54,-0.86,-0.89,6.65
22.902626991271973,-7.24,-0.52,-1.17,7.35
22.91217303276062,-7.59,-0.74,-1.37,7.74
22.926110982894897,-7.4,-0.98,-1.6,7.63
22.933140993118286,-7.09,-0.98,-1.75,7.36
22.94176411628723,-6.69,-1.24,-1.89,7.06
22.952425003051758,-6.07,-1.77,-2.1,6.66
22.962318181991577,-5.23,-2.28,-2.37,6.17
22.97609305381775,-4.81,-2.6,-2.6,6.05
22.983514070510864,-5.11,-2.69,-2.84,6.43
22.9915931224823,-5.36,-2.47,-2.81,6.53
23.002665042877197,-5.29,-2.22,-2.33,6.19
23.012211084365845,-5.06,-2.04,-1.6,5.68
23.025866985321045,-5.07,-2.04,-1.0,5.55
23.03348183631897,-5.09,-2.14,-0.53,5.54
23.04177212715149,-4.82,-1.97,-0.21,5.21
23.05271005630493,-4.34,-1.77,-0.23,4.69
23.06248116493225,-3.73,-1.8,-0.17,4.14
23.076015949249268,-2.95,-1.67,-0.13,3.39
23.083572149276733,-2.25,-1.3,-0.51,2.64
23.09166407585144,-1.89,-1.14,-0.95,2.4
23.102680921554565,-1.51,-0.99,-1.12,2.12
23.1123468875885,-1.49,-0.58,-1.51,2.19
23.12604784965515,-1.18,-0.4,-2.1,2.44
23.13341784477234,-0.28,-0.54,-2.44,2.51
23.14178705215454,-0.07,-0.96,-2.85,3.0
23.152842044830322,-1.31,-1.77,-2.1,3.04
23.162435054779053,-1.4,-1.63,-1.39,2.55
23.175899028778076,-0.51,-0.55,-1.09,1.32
23.183542013168335,0.24,0.26,-0.84,0.91
23.19182801246643,0.58,0.54,-0.86,1.16
23.202795028686523,0.81,0.76,-1.08,1.54
23.21240997314453,1.28,0.96,-1.63,2.28
23.225873947143555,1.51,1.06,-1.93,2.66
23.233678102493286,1.5,1.16,-1.91,2.69
23.24185585975647,1.19,1.22,-1.12,2.03
23.25285005569458,0.98,1.62,0.05,1.89
23.26256012916565,0.93,2.09,0.96,2.48
23.276257038116455,0.34,2.56,1.45,2.96
23.283643007278442,-0.06,3.0,1.24,3.24
23.291862964630127,-0.01,3.03,0.93,3.16
23.302881002426147,0.42,3.17,0.57,3.24
23.312440156936646,1.09,3.2,0.35,3.39
23.325988054275513,1.56,2.94,0.42,3.35
23.33360195159912,1.66,2.85,0.17,3.3
23.341781854629517,1.66,2.67,0.06,3.14
23.352959871292114,1.61,2.46,0.02,2.94
23.362743139266968,1.39,2.2,-0.26,2.61
23.375946044921875,1.33,1.87,-0.41,2.33
23.383635997772217,1.46,1.82,-0.2,2.34
23.39189100265503,1.26,1.56,0.06,2.0
23.40289282798767,1.16,1.13,0.34,1.65
23.41253900527954,1.15,0.96,0.69,1.64
23.42588996887207,1.02,0.93,0.95,1.67
23.433820009231567,1.05,0.84,0.86,1.59
23.441910982131958,1.18,0.59,0.85,1.56
23.453099012374878,1.1,0.47,0.93,1.51
23.46265697479248,0.84,0.24,0.95,1.29
23.475550889968872,0.54,-0.03,1.07,1.19
23.483808040618896,0.16,-0.16,1.15,1.17
23.49197506904602,0.1,-0.2,1.01,1.03
23.503073930740356,0.34,-0.32,0.71,0.84
23.5126211643219,0.45,-0.53,0.4,0.8
23.52579617500305,0.48,-0.64,0.31,0.85
23.53389000892639,0.34,-0.53,0.36,0.72
23.542060136795044,0.13,-0.61,0.41,0.74
23.553186178207397,0.09,-0.62,0.46,0.77
23.56277108192444,0.19,-0.38,0.23,0.48
23.57556986808777,0.33,-0.28,0.04,0.43
23.583827018737793,0.42,-0.19,-0.21,0.5
23.59212303161621,0.53,-0.2,-0.6,0.82
23.603729963302612,0.68,-0.46,-0.17,0.83
23.61278796195984,0.34,-0.59,-0.75,1.01
23.625763177871704,-0.18,-0.88,-1.2,1.49
23.633998155593872,0.14,-0.41,-1.3,1.37
23.642075061798096,0.25,-0.09,-1.23,1.25
23.653085947036743,0.28,0.0,-0.84,0.88
23.662729024887085,0.31,0.02,0.07,0.31
