time,ax,ay,az,atotal
0.003507852554321289,0.09,-0.15,0.25,0.3
0.009949922561645508,0.01,-0.14,0.14,0.19
0.020099878311157227,0.08,-0.03,-0.03,0.09
0.03152012825012207,0.08,0.01,-0.06,0.1
0.04147696495056152,0.01,0.03,0.04,0.05
0.05136513710021973,-0.12,-0.01,-0.01,0.12
0.059916019439697266,-0.16,-0.09,-0.13,0.22
0.07008600234985352,-0.21,-0.15,-0.23,0.34
0.0814521312713623,-0.16,-0.06,-0.17,0.24
0.09161496162414551,-0.15,-0.03,-0.12,0.19
0.1014258861541748,-0.12,-0.07,-0.1,0.17
0.10994791984558105,-0.04,0.0,-0.03,0.05
0.12008500099182129,0.06,-0.01,0.0,0.06
0.13163208961486816,0.14,0.06,0.08,0.17
0.1410820484161377,0.18,0.19,0.08,0.27
0.15099787712097168,0.18,0.15,0.05,0.23
0.15981316566467285,0.15,0.08,0.09,0.19
0.1700119972229004,0.01,0.07,0.07,0.09
0.1815330982208252,-0.13,0.04,0.01,0.13
0.19148993492126465,-0.11,0.04,-0.04,0.12
0.20148897171020508,-0.12,0.02,-0.02,0.12
0.21012187004089355,-0.09,0.03,-0.01,0.09
0.22039198875427246,-0.04,-0.02,0.04,0.06
0.23213696479797363,-0.03,-0.04,-0.51,0.51
0.2416830062866211,0.09,0.02,-1.05,1.05
0.2515699863433838,0.29,0.1,-0.41,0.51
0.2600729465484619,0.33,0.03,-0.07,0.33
0.2702369689941406,0.1,-0.23,0.03,0.25
0.2822990417480469,-0.02,-0.42,-0.17,0.45
0.2917180061340332,-0.28,-0.16,0.34,0.46
0.3014070987701416,-0.24,-0.04,1.19,1.21
0.31012797355651855,-0.01,-0.12,0.72,0.73
0.32038092613220215,-0.03,-0.01,0.06,0.06
0.33727288246154785,-0.06,-0.03,-0.23,0.23
0.34276700019836426,0.09,-0.22,-0.67,0.71
0.3513610363006592,0.41,-0.59,-1.43,1.6
0.35995006561279297,0.56,-0.75,-1.81,2.03
0.37011098861694336,0.68,-0.55,-1.37,1.62
0.3814380168914795,1.13,-0.26,-0.6,1.3
0.39110898971557617,1.59,-0.45,-0.42,1.7
0.40106797218322754,1.84,-0.85,-0.96,2.24
0.409869909286499,1.99,-1.14,-1.41,2.69
0.4198591709136963,2.11,-1.25,-1.43,2.83
0.43541693687438965,2.24,-0.91,-1.3,2.74
0.4411308765411377,2.41,-0.75,-1.49,2.93
0.45096898078918457,2.33,-1.12,-1.78,3.13
0.45983004570007324,2.29,-1.36,-1.87,3.25
0.4701220989227295,2.11,-1.31,-1.84,3.09
0.48137903213500977,1.28,-1.59,-0.64,2.13
0.49111104011535645,-0.29,-2.41,0.83,2.56
0.5010180473327637,-0.32,-2.45,-1.26,2.77
0.5099308490753174,-0.39,-2.48,-1.48,2.91
0.519934892654419,-0.71,-3.39,-1.71,3.86
0.5310220718383789,-1.15,-4.15,-1.5,4.56
0.5409219264984131,-1.62,-3.78,-0.54,4.14
0.5510618686676025,-2.32,-2.51,0.47,3.45
0.5599000453948975,-2.53,-0.84,0.98,2.84
0.5698180198669434,-2.07,0.61,0.98,2.37
0.5847320556640625,-1.52,0.64,0.8,1.83
0.5908629894256592,-0.03,-1.68,0.31,1.7
0.6007468700408936,1.51,-3.42,0.02,3.73
0.6098449230194092,0.63,-2.69,0.51,2.8
0.6199829578399658,-0.26,-1.75,-0.01,1.76
0.6308209896087646,-1.1,-1.51,-0.42,1.91
0.6408631801605225,-1.93,-0.75,-0.31,2.09
0.6505639553070068,-1.48,-0.76,-0.15,1.67
0.6598479747772217,-1.15,-0.69,0.19,1.35
0.6698391437530518,-1.02,-0.09,0.71,1.24
0.6808979511260986,-1.03,0.61,0.86,1.47
0.690911054611206,-0.85,1.38,0.39,1.66
0.7007050514221191,-1.09,2.56,0.48,2.82
0.7099158763885498,-1.62,3.4,0.69,3.82
0.7199549674987793,-2.47,4.56,1.26,5.33
0.7310431003570557,-3.47,5.94,2.03,7.17
0.741096019744873,-3.56,7.12,1.54,8.1
0.7505810260772705,-3.09,8.74,1.19,9.34
0.7599520683288574,-1.98,9.9,1.16,10.16
0.7699790000915527,-1.03,11.78,2.46,12.07
0.7812259197235107,-0.11,14.66,5.09,15.51
0.7917301654815674,1.73,16.58,7.66,18.34
0.8006799221038818,3.65,17.79,9.75,20.61
0.8104760646820068,4.52,18.65,11.1,22.16
0.8207180500030518,5.33,18.92,10.92,22.48
0.8346898555755615,5.35,18.45,9.3,21.34
0.8415510654449463,4.97,17.55,6.98,19.53
0.8507280349731445,4.9,16.79,5.71,18.39
0.8605179786682129,5.56,15.52,4.32,17.04
0.8706600666046143,6.1,14.08,3.08,15.65
0.8844931125640869,7.12,13.09,2.35,15.08
0.8911631107330322,8.68,11.63,2.0,14.64
0.9006609916687012,9.97,9.54,2.25,13.98
0.9098930358886719,10.77,7.65,3.75,13.73
0.9200019836425781,11.75,5.23,4.7,13.69
0.9339430332183838,12.25,2.57,4.37,13.25
0.9410610198974609,12.29,0.23,3.33,12.73
0.9505188465118408,12.04,-1.94,2.4,12.42
0.9599659442901611,11.99,-3.65,1.84,12.66
0.9700009822845459,12.12,-5.07,1.41,13.21
0.9840250015258789,11.89,-6.34,1.15,13.52
0.9911649227142334,11.49,-7.66,0.98,13.84
1.0007641315460205,10.82,-8.58,0.95,13.84
1.0100061893463135,10.38,-9.29,0.6,13.94
1.0201408863067627,10.38,-9.56,0.3,14.11
1.034271001815796,10.37,-9.87,0.04,14.31
1.041313886642456,10.18,-10.18,-0.19,14.39
1.0510590076446533,9.72,-10.53,-0.3,14.33
1.060711145401001,9.3,-10.92,-0.43,14.34
1.070214033126831,9.2,-11.27,-0.53,14.55
1.08473801612854,8.88,-11.52,-0.32,14.54
1.0912868976593018,8.34,-11.87,-0.17,14.5
1.1007931232452393,7.87,-12.42,-0.26,14.7
1.1101410388946533,6.84,-12.58,0.0,14.31
1.12021803855896,6.13,-12.53,0.32,13.95
1.1345031261444092,5.86,-12.62,0.31,13.91
1.1414589881896973,5.67,-12.56,0.09,13.78
1.1511340141296387,5.98,-12.41,-0.4,13.78
1.1603538990020752,6.21,-12.11,-0.75,13.63
1.1701700687408447,6.39,-11.85,-0.94,13.49
1.1845149993896484,6.44,-11.66,-1.08,13.36
1.191283941268921,6.36,-11.48,-1.08,13.16
1.2011950016021729,5.96,-11.18,-1.11,12.71
1.2102370262145996,5.48,-10.92,-1.27,12.28
1.2202808856964111,5.34,-10.9,-1.54,12.23
1.2348010540008545,5.32,-10.86,-1.78,12.22
1.2414181232452393,5.53,-10.44,-1.65,11.92
1.2513301372528076,6.06,-9.77,-1.32,11.57
1.2602808475494385,6.43,-9.08,-0.97,11.16
1.2704379558563232,6.94,-8.5,-0.58,10.98
1.285109043121338,7.6,-7.82,-0.07,10.9
1.2914421558380127,8.36,-6.96,0.35,10.88
1.301326036453247,9.27,-6.12,0.72,11.13
1.3102128505706787,9.7,-5.19,0.97,11.04
1.3205368518829346,9.71,-3.91,0.88,10.5
1.335137128829956,9.63,-2.29,1.25,9.97
1.3414108753204346,9.78,-1.08,0.9,9.88
1.3515489101409912,10.89,0.01,-0.39,10.89
1.3605470657348633,11.41,3.11,-1.27,11.89
1.370544195175171,12.75,6.11,-1.06,14.17
1.3851778507232666,12.89,8.34,-0.41,15.35
1.391814947128296,11.67,10.65,1.18,15.84
1.401366949081421,10.7,12.36,3.53,16.72
1.4106791019439697,9.91,13.21,5.53,17.41
1.4211740493774414,9.07,15.04,6.5,18.72
1.4353840351104736,8.35,16.48,6.88,19.71
1.4419970512390137,7.83,17.75,7.07,20.64
1.4514029026031494,6.07,17.64,6.12,19.63
1.4608581066131592,4.64,16.85,3.4,17.8
1.470905065536499,3.17,15.94,2.05,16.38
1.4849889278411865,1.64,14.86,1.44,15.01
1.4919710159301758,0.87,14.01,0.24,14.03
1.5012459754943848,0.82,13.31,-1.16,13.38
1.5103490352630615,-0.35,12.44,-2.44,12.68
1.520496129989624,-1.94,10.97,-3.74,11.75
1.5345609188079834,-3.46,9.41,-4.33,10.92
1.541290044784546,-4.64,8.23,-4.04,10.27
1.5514030456542969,-5.06,7.43,-3.43,9.62
1.5605218410491943,-4.9,7.25,-2.81,9.19
1.5703670978546143,-4.52,7.64,-2.64,9.26
1.584665060043335,-4.1,7.69,-3.46,9.37
1.5921120643615723,-4.0,7.71,-4.11,9.6
1.6012661457061768,-4.42,8.2,-4.68,10.42
1.6103899478912354,-4.54,7.89,-6.05,10.93
1.620535135269165,-4.32,8.28,-6.91,11.61
1.6351401805877686,-4.14,9.21,-6.67,12.1
1.6415541172027588,-3.72,10.06,-5.97,12.27
1.6513221263885498,-3.33,10.62,-5.36,12.35
1.6606009006500244,-2.74,11.2,-5.18,12.64
1.6704881191253662,-1.28,11.84,-4.75,12.82
1.6852960586547852,0.54,12.5,-3.82,13.08
1.691943883895874,2.64,13.07,-2.66,13.59
1.7012860774993896,4.87,13.2,-0.99,14.1
1.7112720012664795,6.49,13.3,1.5,14.87
1.7208330631256104,7.7,12.96,3.53,15.48
1.7348148822784424,8.44,12.53,4.98,15.9
1.7418491840362549,9.19,12.36,6.17,16.59
1.7513458728790283,10.81,11.62,6.29,17.07
1.7604570388793945,12.58,10.11,5.22,16.96
1.7703731060028076,13.19,7.94,3.98,15.9
1.7846291065216064,13.41,5.58,2.84,14.79
1.7914390563964844,13.46,3.19,1.89,13.96
1.8013231754302979,13.06,0.49,1.24,13.12
1.8102538585662842,12.54,-2.13,1.01,12.75
1.8204991817474365,11.88,-4.52,1.02,12.75
1.8343279361724854,11.14,-6.48,1.37,12.96
1.8412668704986572,10.46,-7.73,2.12,13.17
1.8513569831848145,9.57,-8.53,2.61,13.08
1.8604929447174072,8.62,-9.08,2.55,12.77
1.8704421520233154,7.9,-9.48,2.25,12.54
1.8848021030426025,7.24,-9.8,1.9,12.33
1.891564130783081,6.73,-9.99,1.5,12.13
1.9013819694519043,6.1,-10.23,0.83,11.93
1.9102649688720703,5.48,-10.32,0.05,11.68
1.9207041263580322,5.14,-10.24,-0.41,11.46
1.9348981380462646,4.79,-10.12,-0.59,11.21
1.941511869430542,4.51,-9.92,-0.61,10.91
1.9512779712677002,4.42,-9.72,-0.55,10.69
1.960494041442871,4.57,-9.51,-0.36,10.55
1.9706470966339111,4.59,-9.32,-0.04,10.38
1.984792947769165,4.55,-9.11,0.17,10.18
1.9916441440582275,4.65,-8.92,0.18,10.06
2.001455068588257,4.81,-9.03,-0.08,10.23
2.010416030883789,5.02,-9.41,-0.38,10.67
2.0206611156463623,4.95,-9.59,-0.37,10.79
2.034619092941284,4.88,-9.44,-0.06,10.62
2.041546106338501,5.02,-9.29,0.25,10.56
2.0514540672302246,5.09,-9.08,0.41,10.41
2.0605151653289795,5.11,-8.48,0.65,9.92
2.070647954940796,5.24,-7.71,0.64,9.34
2.084594964981079,5.24,-7.31,0.25,8.99
2.091848134994507,5.41,-7.1,-0.35,8.93
2.101438045501709,5.89,-7.04,-0.91,9.22
2.1104538440704346,6.23,-7.11,-1.12,9.51
2.1207480430603027,6.33,-7.08,-0.77,9.52
2.1353890895843506,6.15,-6.85,-0.19,9.2
2.1416189670562744,5.23,-6.4,0.22,8.26
2.1513919830322266,4.17,-5.29,0.22,6.73
2.160741090774536,4.28,-3.55,0.07,5.56
2.170579195022583,5.75,-2.35,-0.56,6.23
2.185620069503784,7.87,-1.84,-1.59,8.23
2.191878080368042,9.24,-0.94,-1.57,9.41
2.2014529705047607,9.41,0.63,-0.53,9.44
2.2104530334472656,9.05,2.28,0.83,9.36
2.2206640243530273,8.54,3.82,1.86,9.53
2.234825849533081,7.92,4.61,1.86,9.35
2.2416250705718994,7.83,4.2,0.71,8.91
2.2514920234680176,7.98,3.68,-0.29,8.79
2.26072096824646,8.11,3.84,-0.12,8.97
2.270569086074829,8.54,3.97,0.78,9.44
2.2848169803619385,8.73,3.93,2.79,9.97
2.2914621829986572,7.83,3.83,4.37,9.75
2.301555871963501,6.76,4.62,4.69,9.43
2.310654878616333,5.14,6.26,4.33,9.18
2.320789098739624,3.79,7.35,2.86,8.75
2.335210084915161,2.7,7.94,0.04,8.38
2.3418729305267334,1.3,8.35,-1.51,8.58
2.3515830039978027,0.59,9.04,-1.62,9.2
2.3606719970703125,0.06,9.36,-1.28,9.44
2.3707211017608643,-0.62,9.3,0.05,9.32
2.3851211071014404,-1.12,9.73,1.46,9.9
2.3917510509490967,-0.89,10.36,2.25,10.63
2.401646852493286,-1.48,8.97,3.21,9.64
2.4108269214630127,-5.32,9.28,5.39,11.97
2.4206931591033936,-10.26,8.48,8.11,15.58
2.4355740547180176,-15.51,4.74,11.26,19.74
2.442106008529663,-17.59,4.01,14.45,23.11
2.451874017715454,-14.24,6.26,14.96,21.58
2.4608500003814697,-8.79,9.85,11.18,17.29
2.4708149433135986,-4.12,13.03,6.83,15.27
2.4858930110931396,-0.5,15.05,2.74,15.3
2.491957902908325,-0.29,12.93,0.02,12.93
2.5019280910491943,-0.86,11.74,-1.41,11.85
2.5108211040496826,-1.22,11.35,-2.28,11.64
2.5211000442504883,-3.1,10.85,-2.51,11.55
2.5359890460968018,-5.64,10.8,-2.08,12.36
2.542149066925049,-6.22,10.93,-2.16,12.76
2.551845073699951,-4.81,9.65,-3.58,11.36
2.560955047607422,-2.2,7.29,-5.45,9.36
2.5708279609680176,-2.25,7.58,-3.06,8.47
2.585536003112793,-3.56,7.11,0.4,7.96
2.5918450355529785,2.42,14.55,-2.08,14.89
2.601759195327759,7.57,11.4,1.15,13.73
2.6108548641204834,0.28,14.44,8.0,16.51
2.6215598583221436,0.77,16.77,7.3,18.3
2.6360371112823486,4.55,12.07,4.67,13.71
2.6423020362854004,8.36,10.12,2.99,13.46
2.65171217918396,9.9,9.94,1.79,14.14
2.660863161087036,9.43,8.51,0.71,12.72
2.670902967453003,10.25,6.64,0.38,12.21
2.6861331462860107,11.5,5.69,1.0,12.86
2.691915988922119,10.97,4.5,1.3,11.92
2.701732873916626,9.95,2.51,1.2,10.33
2.710761070251465,9.49,0.72,1.4,9.61
2.721065044403076,9.21,-0.36,1.45,9.33
2.736157178878784,8.72,-1.31,0.91,8.86
2.742027997970581,7.97,-2.73,0.09,8.42
2.7516849040985107,7.19,-4.39,-0.38,8.43
2.7610461711883545,7.44,-5.64,-1.01,9.39
2.771095037460327,8.24,-6.07,-2.04,10.43
2.7857420444488525,8.16,-6.6,-2.56,10.8
2.791912078857422,7.94,-7.57,-2.35,11.21
2.801983118057251,7.66,-8.63,-1.72,11.66
2.810940980911255,7.39,-9.12,-1.05,11.78
2.820984125137329,6.9,-9.16,-0.28,11.47
2.8361189365386963,6.45,-9.27,0.56,11.3
2.842189073562622,6.29,-9.52,1.24,11.47
2.8519229888916016,6.74,-9.38,1.48,11.64
2.860978841781616,6.93,-9.12,1.28,11.52
2.8709640502929688,6.84,-9.05,0.89,11.37
2.8859200477600098,6.39,-9.15,0.44,11.16
2.892240047454834,5.94,-9.26,-0.09,11.0
2.902039051055908,5.78,-9.18,-0.55,10.86
2.9110469818115234,5.61,-9.05,-1.04,10.69
2.9210078716278076,5.45,-8.9,-1.62,10.56
2.9361770153045654,5.4,-8.75,-2.06,10.48
2.9420230388641357,5.45,-8.75,-2.23,10.54
2.952101945877075,5.74,-8.84,-2.2,10.76
2.961005926132202,5.85,-8.87,-2.06,10.82
2.9711170196533203,5.77,-8.84,-1.85,10.71
2.9866111278533936,5.55,-8.88,-1.41,10.56
2.992285966873169,5.54,-8.67,-0.78,10.31
3.0020968914031982,5.59,-8.29,-0.34,10.0
3.0110700130462646,5.44,-8.08,-0.2,9.74
3.0211589336395264,5.19,-8.08,-0.28,9.6
3.0363080501556396,5.2,-8.07,-0.57,9.61
3.0423309803009033,5.1,-7.92,-0.85,9.45
3.052021026611328,4.98,-7.66,-0.95,9.18
3.0611560344696045,4.94,-7.52,-1.04,9.05
3.0709731578826904,5.09,-7.12,-1.04,8.81
3.086111068725586,5.35,-6.58,-1.2,8.56
3.0922858715057373,5.61,-5.95,-1.34,8.28
3.102018117904663,5.97,-5.04,-1.31,7.92
3.110959053039551,6.7,-4.26,-1.26,8.03
3.1212069988250732,7.58,-3.37,-0.94,8.34
3.135753870010376,8.15,-1.92,-0.43,8.38
3.1421358585357666,8.68,-0.24,0.32,8.68
3.151949167251587,9.45,1.49,1.39,9.66
3.1610400676727295,10.48,3.38,2.65,11.32
3.1710798740386963,10.85,5.8,3.91,12.9
3.1859328746795654,10.37,7.66,4.5,13.65
3.1920650005340576,9.25,8.5,4.11,13.21
3.2019670009613037,7.95,8.99,3.11,12.39
3.2110021114349365,7.08,8.87,2.1,11.54
3.221036195755005,6.07,9.19,1.52,11.11
3.235828161239624,4.67,10.0,1.43,11.12
3.242140054702759,4.15,10.93,1.25,11.75
3.251955032348633,4.01,11.63,1.22,12.36
3.261038064956665,3.17,11.46,1.22,11.95
3.271113157272339,1.38,10.77,1.28,10.93
3.285611867904663,-0.93,10.18,1.69,10.36
3.2921509742736816,-2.77,9.64,2.28,10.28
3.302037000656128,-3.7,9.3,2.59,10.33
3.31101393699646,-4.56,9.15,2.51,10.52
3.321333169937134,-5.21,8.9,2.43,10.59
3.335909128189087,-5.56,8.87,2.32,10.72
3.342064142227173,-6.35,9.1,1.93,11.26
3.3519580364227295,-7.19,9.39,1.61,11.93
3.361201047897339,-7.67,9.71,1.38,12.45
3.371307134628296,-7.85,10.34,1.2,13.03
3.3859498500823975,-7.98,10.78,1.25,13.47
3.3921730518341064,-8.06,10.59,1.67,13.41
3.402369976043701,-7.2,10.5,2.37,12.95
3.4113399982452393,-6.01,10.65,2.89,12.56
3.421633005142212,-5.18,10.78,3.11,12.35
3.4367170333862305,-4.99,10.8,3.25,12.33
3.4425160884857178,-4.6,10.42,3.21,11.83
3.4522411823272705,-3.57,10.34,3.19,11.39
3.4612979888916016,-2.74,10.51,3.01,11.27
3.4712209701538086,-2.42,10.73,2.16,11.2
3.4858510494232178,-1.96,10.96,1.14,11.19
3.492326021194458,-1.44,11.45,0.26,11.54
3.5022618770599365,-0.77,11.67,0.15,11.69
3.511255979537964,0.73,10.84,0.37,10.87
3.52136492729187,1.84,9.77,0.73,9.96
3.5362279415130615,2.38,9.04,1.13,9.41
3.5421221256256104,3.11,8.42,1.42,9.08
3.5522801876068115,4.47,8.19,1.26,9.41
3.5612330436706543,6.03,8.21,0.91,10.22
3.571192979812622,7.64,7.79,0.86,10.94
3.585700035095215,8.17,6.39,0.52,10.38
3.5921270847320557,7.7,4.32,0.06,8.82
3.6020920276641846,6.83,2.35,-0.34,7.23
3.6111350059509277,6.26,0.62,-0.46,6.3
3.6212451457977295,6.45,-0.66,-0.49,6.5
3.6363770961761475,7.69,-0.97,-0.86,7.79
3.6422550678253174,8.88,-1.21,-1.02,9.01
3.652235984802246,9.23,-2.54,-0.75,9.6
3.6613240242004395,8.96,-4.36,-0.57,9.98
3.6713569164276123,8.15,-5.79,-0.32,10.0
3.68641996383667,7.46,-6.76,0.0,10.06
3.692241907119751,7.28,-7.54,-0.04,10.48
3.702191114425659,7.13,-8.05,-0.15,10.75
3.711171865463257,7.6,-8.0,-0.43,11.04
3.7212140560150146,8.29,-7.65,-0.97,11.32
3.7356979846954346,8.53,-7.42,-1.61,11.41
3.742014169692993,8.21,-7.67,-1.96,11.4
3.7519381046295166,7.52,-8.05,-1.83,11.16
3.76118803024292,6.73,-8.11,-1.31,10.61
3.771104097366333,6.14,-7.97,-0.81,10.09
3.7853879928588867,6.13,-7.93,-0.64,10.04
3.792419195175171,6.33,-7.62,-0.75,9.93
3.802057981491089,6.17,-7.33,-0.9,9.62
3.8111531734466553,5.85,-7.34,-1.05,9.44
3.8213210105895996,5.49,-7.43,-1.13,9.3
3.835381031036377,5.05,-7.23,-1.1,8.88
3.842298984527588,4.64,-6.88,-0.95,8.35
3.8522841930389404,4.35,-6.52,-0.94,7.89
3.861309051513672,4.34,-6.23,-1.04,7.66
3.8713901042938232,4.41,-6.08,-1.19,7.6
3.8859000205993652,4.44,-6.06,-1.27,7.61
3.8925468921661377,4.36,-5.9,-1.26,7.44
3.902348041534424,4.1,-5.41,-1.1,6.87
3.9113290309906006,3.86,-4.69,-0.89,6.13
3.9215428829193115,3.98,-3.94,-0.63,5.63
3.936141014099121,4.22,-2.97,-0.29,5.16
3.9424850940704346,4.38,-2.19,-0.31,4.9
3.9523041248321533,4.67,-1.86,-0.55,5.05
3.9615039825439453,4.76,-1.47,-0.6,5.01
3.9713571071624756,4.76,-0.99,-0.6,4.89
3.985849142074585,4.76,-0.5,-0.55,4.81
3.9923970699310303,4.6,0.0,-0.27,4.6
4.002556085586548,4.5,0.48,0.16,4.52
4.01158595085144,4.67,0.86,0.42,4.76
4.021555185317993,4.79,1.25,0.49,4.97
4.035895109176636,4.8,1.69,0.6,5.12
4.042324066162109,4.81,2.02,0.94,5.3
4.052389860153198,4.41,2.65,1.43,5.33
4.061451196670532,4.0,3.66,1.71,5.68
4.071518182754517,3.87,4.38,1.34,5.99
4.08604884147644,3.56,4.72,0.57,5.93
4.092642068862915,2.4,4.79,0.22,5.36
4.10222315788269,1.04,4.37,0.17,4.49
4.111515045166016,-0.22,4.33,0.26,4.34
4.121590852737427,-1.0,5.13,0.27,5.23
4.135679006576538,-0.76,5.72,0.31,5.77
4.1425089836120605,-0.48,6.18,0.62,6.22
4.15247106552124,-0.83,6.65,0.98,6.77
4.1614789962768555,-1.12,6.88,1.21,7.07
4.171539068222046,-1.83,6.69,1.3,7.05
4.185486078262329,-2.81,6.29,1.54,7.05
4.192518949508667,-3.43,5.85,1.94,7.05
4.202431917190552,-3.4,5.56,2.26,6.89
4.211369037628174,-3.31,5.32,2.66,6.8
4.221556901931763,-3.52,5.01,2.97,6.8
4.235949993133545,-3.77,4.99,3.22,7.03
4.242646932601929,-4.3,5.42,3.71,7.85
4.252390146255493,-4.74,5.9,4.14,8.62
4.26164698600769,-4.91,6.29,3.89,8.87
4.27166485786438,-5.04,6.54,3.13,8.83
4.285933971405029,-5.32,6.64,2.63,8.9
4.292733907699585,-5.86,6.49,2.51,9.09
4.302686929702759,-6.68,6.1,2.77,9.46
4.3116538524627686,-6.69,5.95,3.42,9.58
4.321609973907471,-5.49,6.61,3.08,9.12
4.335849046707153,-3.83,7.18,2.7,8.57
4.342582941055298,-2.86,7.41,2.66,8.37
4.35250997543335,-2.97,7.43,2.9,8.51
4.361572027206421,-2.99,7.17,3.4,8.47
4.371533155441284,-2.75,7.24,3.86,8.65
4.385615110397339,-1.94,7.61,3.8,8.72
4.39258885383606,-1.01,7.68,2.86,8.25
4.402451038360596,-0.62,7.74,0.83,7.8
4.411588907241821,-0.68,8.05,0.58,8.09
4.421686887741089,0.05,7.92,0.74,7.95
4.435580015182495,0.86,7.61,0.8,7.7
4.442699193954468,1.47,7.46,1.12,7.68
4.452475070953369,2.01,7.25,1.34,7.64
4.46152400970459,2.52,7.01,1.54,7.6
4.4715259075164795,2.78,6.57,1.47,7.28
4.485212087631226,3.23,5.99,1.26,6.92
4.492511987686157,3.8,5.31,0.9,6.59
4.502312898635864,4.24,4.56,0.51,6.24
4.511494874954224,4.6,4.11,0.06,6.16
4.521621942520142,4.67,3.46,-0.53,5.83
4.535300016403198,4.54,2.46,-1.26,5.31
4.542453050613403,4.21,1.52,-2.03,4.91
4.552354097366333,4.09,0.81,-2.52,4.87
4.561553001403809,4.26,0.05,-2.74,5.06
4.57165002822876,4.54,-0.86,-2.73,5.36
4.585323095321655,4.72,-1.66,-2.54,5.61
4.592632055282593,4.62,-2.38,-2.17,5.63
4.602586984634399,4.65,-3.28,-1.64,5.92
4.611620187759399,4.85,-4.15,-1.11,6.47
4.621548891067505,5.2,-4.44,-0.66,6.86
4.635369062423706,5.54,-4.53,-0.44,7.16
4.642870187759399,5.53,-4.87,-0.12,7.36
4.652554035186768,5.3,-5.33,0.12,7.51
4.661705017089844,4.87,-5.6,0.32,7.42
4.671638011932373,4.49,-5.63,0.49,7.21
4.685590982437134,4.58,-5.55,0.5,7.21
4.692789077758789,5.08,-5.38,0.24,7.4
4.702636957168579,5.28,-5.37,-0.2,7.53
4.711668014526367,5.06,-5.41,-0.43,7.42
4.7219250202178955,4.73,-5.45,-0.5,7.23
4.735586881637573,4.65,-5.44,-0.47,7.17
4.742631196975708,4.55,-5.37,-0.3,7.04
4.752537965774536,4.61,-5.33,-0.18,7.04
4.761837005615234,4.55,-5.5,-0.04,7.13
4.77192497253418,4.25,-5.86,-0.02,7.23
4.78564190864563,3.91,-6.05,-0.1,7.2
4.792723894119263,3.72,-6.0,-0.1,7.06
4.802889108657837,3.78,-5.94,0.0,7.04
4.811762094497681,3.8,-5.9,0.02,7.01
4.821814060211182,3.74,-5.68,-0.03,6.8
4.835762023925781,3.6,-5.42,-0.13,6.5
4.84313702583313,3.43,-5.32,-0.3,6.33
4.852928876876831,3.32,-5.22,-0.51,6.2
4.862230062484741,3.32,-5.0,-0.47,6.02
4.872107028961182,3.4,-4.78,-0.24,5.87
4.886291027069092,3.34,-4.6,0.0,5.68
4.893177032470703,3.24,-4.44,0.21,5.5
4.9029700756073,3.15,-4.24,0.28,5.28
4.912333011627197,3.05,-3.96,0.38,5.01
4.921871900558472,2.99,-3.49,0.62,4.63
4.935711145401001,3.12,-3.14,0.74,4.48
4.9428839683532715,3.31,-2.77,0.87,4.4
4.952781915664673,3.42,-2.24,1.08,4.22
4.9623939990997314,3.56,-1.6,1.18,4.07
4.9719789028167725,4.0,-0.8,1.17,4.24
4.985581159591675,4.6,0.06,1.15,4.74
4.9928648471832275,4.97,0.52,1.2,5.13
5.002919912338257,4.9,0.69,1.1,5.06
5.0122740268707275,4.48,0.85,0.99,4.66
5.021939039230347,4.13,1.08,0.9,4.36
5.035811185836792,4.06,1.49,0.83,4.4
5.043052911758423,4.27,2.26,0.64,4.87
5.0530149936676025,4.41,3.04,0.1,5.35
5.06243109703064,4.29,3.51,-0.51,5.56
5.07217001914978,3.96,3.47,-1.03,5.36
5.086148023605347,3.36,3.21,-1.44,4.86
5.093273878097534,2.67,3.28,-1.71,4.56
5.102993965148926,1.94,3.54,-2.08,4.54
5.112236976623535,1.37,3.67,-2.58,4.69
5.122194051742554,1.01,3.82,-2.9,4.9
5.135786056518555,0.88,4.05,-3.09,5.16
5.143169164657593,0.87,4.2,-2.98,5.22
5.1529929637908936,0.69,4.13,-2.35,4.8
5.162505865097046,0.32,4.08,-1.45,4.34
5.172168970108032,-0.34,4.27,-0.41,4.3
5.185818910598755,-1.05,4.37,0.44,4.51
5.193049192428589,-1.27,4.55,1.03,4.83
5.2028889656066895,-1.39,4.58,1.69,5.07
5.212471961975098,-1.55,4.66,2.38,5.45
5.222016096115112,-1.96,4.98,3.16,6.21
5.235431909561157,-2.58,5.33,3.76,7.01
5.242997884750366,-2.92,5.72,3.82,7.47
5.252892971038818,-3.15,6.01,3.69,7.72
5.262474060058594,-3.32,6.13,3.56,7.82
5.2720959186553955,-3.73,6.23,3.71,8.15
5.285223007202148,-4.24,6.29,3.97,8.56
5.293045997619629,-4.91,6.3,4.28,9.06
5.302823066711426,-5.28,6.29,4.57,9.39
5.312410116195679,-5.26,6.44,4.66,9.53
5.3219358921051025,-5.05,6.63,4.61,9.52
5.334969997406006,-4.66,6.96,4.61,9.56
5.3430469036102295,-4.27,7.43,4.58,9.71
5.352876901626587,-3.79,7.71,4.39,9.64
5.362431049346924,-3.35,7.91,3.96,9.45
5.372112989425659,-2.98,8.18,3.55,9.4
5.3852221965789795,-2.42,8.3,3.09,9.18
5.393056154251099,-1.69,8.28,2.45,8.79
5.4029929637908936,-1.26,7.96,1.82,8.26
5.4124181270599365,-1.2,7.67,1.68,7.94
5.422152996063232,-1.22,7.38,1.62,7.65
5.4350950717926025,-1.07,7.25,1.34,7.45
5.443134069442749,-0.61,7.45,1.1,7.55
5.452944040298462,0.27,7.52,0.54,7.54
5.462566137313843,1.15,7.41,-0.15,7.5
5.472167015075684,1.86,7.35,-0.71,7.61
5.4854090213775635,2.38,7.22,-1.03,7.67
5.493096113204956,2.76,6.76,-1.08,7.38
5.503231048583984,3.0,6.01,-0.92,6.77
5.5125579833984375,3.25,5.44,-0.57,6.36
5.522154092788696,3.7,4.98,-0.46,6.22
5.535660028457642,4.46,4.35,-0.61,6.25
5.54301905632019,5.14,3.7,-0.62,6.36
5.553189039230347,5.45,3.07,-0.45,6.27
5.562676191329956,5.72,2.18,-0.25,6.12
5.572211027145386,5.86,1.14,-0.07,5.97
5.585309982299805,5.79,0.08,0.01,5.79
5.593181848526001,5.69,-0.85,-0.05,5.75
5.602992057800293,5.63,-1.62,-0.24,5.86
5.612617015838623,5.71,-2.24,-0.49,6.15
5.62224006652832,5.9,-2.82,-0.74,6.58
5.63496994972229,6.04,-3.38,-0.89,6.97
5.643164873123169,6.22,-3.88,-0.77,7.37
5.653075933456421,6.3,-4.33,-0.44,7.65
5.6626410484313965,6.23,-4.89,-0.03,7.91
5.672245979309082,6.09,-5.46,0.42,8.19
5.685487985610962,5.93,-5.81,0.76,8.33
5.693346977233887,5.86,-6.16,0.97,8.55
5.703100919723511,5.71,-6.51,0.99,8.71
5.712439060211182,5.53,-6.71,0.88,8.73
5.7223219871521,5.29,-6.77,0.68,8.61
5.735260963439941,5.11,-6.79,0.39,8.5
5.7432639598846436,4.99,-6.84,-0.03,8.46
5.753025054931641,4.83,-6.79,-0.53,8.34
5.762479066848755,4.66,-6.74,-0.96,8.25
5.77228307723999,4.38,-6.74,-1.25,8.13
5.78537917137146,4.13,-6.66,-1.53,7.98
5.79320502281189,3.96,-6.53,-1.78,7.84
5.803390026092529,3.81,-6.46,-1.98,7.75
5.812658071517944,3.72,-6.38,-2.07,7.66
5.822571039199829,3.7,-6.22,-1.98,7.5
5.835397005081177,3.67,-6.12,-1.72,7.34
5.843304872512817,3.61,-6.03,-1.45,7.17
5.8533241748809814,3.63,-5.82,-1.19,6.96
5.862681150436401,3.67,-5.49,-0.97,6.67
5.872506856918335,3.74,-5.33,-0.82,6.56
5.885793924331665,3.85,-5.27,-0.7,6.56
5.893535852432251,3.9,-5.18,-0.38,6.49
5.903418064117432,3.96,-4.94,0.16,6.33
5.913057088851929,3.92,-4.67,0.68,6.13
5.922640085220337,3.87,-4.35,1.07,5.91
5.935780048370361,3.97,-3.92,1.18,5.7
5.943619012832642,4.12,-3.35,1.12,5.42
5.953425168991089,4.36,-2.78,1.06,5.27
5.963002920150757,4.54,-2.33,0.94,5.18
5.972596883773804,4.34,-1.98,0.64,4.81
5.986479997634888,4.08,-1.66,0.28,4.41
5.993610143661499,3.98,-1.2,-0.09,4.15
6.003494024276733,4.0,-0.66,-0.31,4.06
6.012995958328247,4.15,0.0,-0.41,4.17
6.022585153579712,4.38,0.57,-0.54,4.44
6.03612494468689,4.52,0.98,-0.66,4.67
6.0434911251068115,4.43,1.57,-0.65,4.74
6.053338050842285,4.22,2.24,-0.65,4.82
6.062845945358276,4.17,2.74,-0.84,5.05
6.072668075561523,4.42,3.46,-1.03,5.7
6.085916996002197,4.76,4.1,-1.1,6.37
6.093638181686401,4.53,4.25,-1.2,6.32
6.1034770011901855,3.67,4.22,-1.08,5.69
6.112601041793823,2.62,4.48,-0.58,5.22
6.122510194778442,1.69,4.89,-0.01,5.17
6.1354591846466064,1.21,5.21,0.37,5.36
6.143367052078247,1.03,5.44,0.59,5.56
6.15336799621582,0.69,5.5,0.71,5.58
6.1626060009002686,0.28,5.42,0.79,5.48
6.172363042831421,-0.36,5.36,1.05,5.47
6.185257196426392,-1.11,5.36,1.42,5.65
6.193402051925659,-1.85,5.52,1.97,6.14
6.203602075576782,-2.13,5.95,2.69,6.86
6.212583065032959,-2.05,6.42,3.42,7.55
6.222488164901733,-2.2,6.63,3.77,7.93
6.235274076461792,-3.05,6.42,3.57,7.95
6.2437121868133545,-4.01,6.47,3.31,8.3
6.253551006317139,-4.74,6.88,3.26,8.96
6.262526988983154,-5.05,6.93,2.99,9.08
6.27253794670105,-5.06,7.1,2.42,9.04
6.285353899002075,-5.03,7.48,1.8,9.19
6.293347120285034,-5.04,7.69,1.22,9.27
6.303328990936279,-5.1,7.8,0.67,9.34
6.312541961669922,-5.16,7.53,0.68,9.15
6.32262110710144,-4.66,7.44,0.98,8.83
6.335149049758911,-3.93,7.6,0.93,8.6
6.343502044677734,-3.31,7.64,0.84,8.36
6.353301048278809,-2.67,7.91,0.85,8.39
6.362498998641968,-2.13,8.23,0.76,8.53
6.372647047042847,-1.28,8.3,0.61,8.42
6.385029077529907,-0.47,8.23,0.48,8.25
6.393539190292358,0.36,7.73,0.36,7.74
6.403365850448608,0.6,6.78,0.06,6.8
6.412338972091675,-0.64,6.42,0.32,6.45
6.422450065612793,-1.4,6.42,0.92,6.63
6.4348859786987305,-1.3,5.94,1.34,6.22
6.443603992462158,-1.17,5.72,1.63,6.06
6.4533610343933105,-0.58,5.73,1.6,5.97
6.4624998569488525,0.21,5.96,1.35,6.11
6.472575902938843,0.89,6.13,1.04,6.28
6.484425067901611,1.52,6.2,0.64,6.41
6.493474006652832,2.16,6.26,0.36,6.63
6.503509044647217,2.91,6.16,0.3,6.81
6.512315988540649,3.65,6.03,0.37,7.05
6.522562026977539,4.2,5.69,0.34,7.08
6.534569978713989,4.64,4.9,0.16,6.75
6.543400049209595,4.84,4.13,0.07,6.36
6.553283929824829,4.95,3.25,0.07,5.92
6.562475919723511,5.12,2.26,0.04,5.59
6.572419881820679,5.34,1.32,-0.06,5.5
6.584537982940674,5.49,0.37,-0.15,5.5
6.593656063079834,5.55,-0.69,-0.36,5.6
6.603450059890747,5.58,-1.7,-0.67,5.87
6.612437963485718,5.68,-2.5,-0.84,6.26
6.622776031494141,5.65,-3.23,-0.88,6.56
6.635052919387817,5.53,-3.92,-0.86,6.83
6.6435229778289795,5.49,-4.57,-0.92,7.2
6.653343915939331,5.49,-4.97,-1.06,7.48
6.662590026855469,5.39,-5.42,-1.23,7.74
6.672651052474976,5.29,-6.03,-1.32,8.12
6.685291051864624,5.37,-6.46,-1.28,8.49
6.693619966506958,5.28,-6.68,-1.21,8.6
6.703438997268677,5.16,-6.85,-1.11,8.64
6.712612867355347,5.12,-7.01,-0.94,8.73
6.722746133804321,5.14,-7.11,-0.8,8.8
6.734999895095825,5.27,-7.08,-0.77,8.85
6.743497133255005,5.45,-6.92,-0.81,8.84
6.753427028656006,5.56,-6.92,-0.89,8.92
6.762577056884766,5.5,-6.96,-0.9,8.91
6.77289605140686,5.37,-6.93,-0.91,8.81
6.785022020339966,5.18,-6.9,-1.03,8.68
6.793700933456421,4.94,-6.9,-1.22,8.57
6.803526163101196,4.85,-6.85,-1.33,8.49
6.812561988830566,4.82,-6.79,-1.38,8.44
6.822856187820435,4.65,-6.68,-1.4,8.25
6.834665060043335,4.53,-6.58,-1.55,8.13
6.844151973724365,4.39,-6.44,-1.72,7.98
6.8535239696502686,4.2,-6.24,-1.87,7.75
6.862598180770874,4.19,-6.02,-1.99,7.59
6.872802972793579,4.51,-5.71,-1.98,7.54
6.884424924850464,4.8,-5.48,-1.83,7.51
6.894101858139038,4.75,-5.28,-1.64,7.28
6.903632879257202,4.57,-5.08,-1.37,6.96
6.912714004516602,4.49,-4.75,-1.02,6.61
6.922858953475952,4.43,-4.17,-0.64,6.11
6.934631109237671,4.55,-3.52,-0.34,5.76
6.944151163101196,5.12,-2.9,-0.24,5.88
6.95362114906311,5.88,-2.05,-0.19,6.23
6.962869882583618,6.39,-1.12,0.04,6.48
6.972920179367065,6.78,-0.34,0.4,6.8
6.98495888710022,7.07,0.88,0.97,7.19
6.994125127792358,6.79,2.32,1.65,7.36
7.003655195236206,6.32,3.36,2.1,7.45
7.012863874435425,5.72,4.09,2.32,7.4
7.022984981536865,4.84,4.64,2.31,7.09
7.035003900527954,4.11,5.14,2.09,6.9
7.044297933578491,3.34,5.47,1.6,6.6
7.053627967834473,2.44,5.51,0.93,6.09
7.062901973724365,1.68,5.52,0.45,5.78
7.072862863540649,0.65,5.28,0.14,5.32
7.084758996963501,-0.58,4.63,-0.08,4.66
7.094256162643433,-1.53,4.05,-0.06,4.32
7.103641986846924,-1.8,4.14,-0.06,4.51
7.112771987915039,-1.54,4.73,-0.2,4.97
7.122873067855835,-1.45,4.72,-0.14,4.93
7.134661912918091,-1.58,4.45,0.36,4.73
7.144021987915039,-1.96,4.33,1.4,4.95
7.153691053390503,-2.64,4.19,2.41,5.5
7.1627161502838135,-3.2,4.04,3.3,6.11
7.172900915145874,-3.05,4.19,3.83,6.44
7.184640169143677,-2.7,4.74,3.82,6.65
7.19441294670105,-3.08,5.44,3.98,7.41
7.203705072402954,-3.23,6.06,4.04,7.96
7.212889909744263,-3.8,6.1,4.14,8.29
7.222905874252319,-4.37,6.12,4.26,8.64
7.234776020050049,-4.37,6.89,3.96,9.06
7.244441032409668,-4.8,7.88,3.61,9.9
7.253699064254761,-5.54,8.14,3.23,10.36
7.26300311088562,-6.37,8.04,2.95,10.67
7.272964000701904,-6.8,8.01,2.79,10.87
7.284651041030884,-6.73,7.79,3.01,10.72
7.294373035430908,-5.91,7.9,3.19,10.36
7.303838014602661,-4.79,8.11,2.34,9.7
7.312908887863159,-4.12,8.18,1.81,9.33
7.3229780197143555,-4.05,8.26,1.59,9.33
7.334683179855347,-4.17,8.41,1.66,9.53
7.34440016746521,-4.48,8.2,1.86,9.52
7.353708028793335,-4.17,7.94,1.8,9.14
7.362919092178345,-3.25,7.53,1.44,8.32
7.372828960418701,-2.79,7.28,0.61,7.82
7.384119033813477,-2.72,8.09,0.06,8.53
7.394257068634033,-2.28,8.41,0.02,8.71
7.403553009033203,-1.15,8.0,-0.69,8.11
7.412575006484985,-0.32,7.5,-1.29,7.61
7.422774076461792,0.34,7.27,-1.09,7.35
7.433746099472046,0.87,7.35,-0.96,7.46
7.443786859512329,1.04,7.12,-0.6,7.22
7.453471899032593,1.65,6.63,-0.15,6.83
7.462869882583618,2.42,5.94,0.58,6.44
7.473720073699951,3.42,5.36,1.32,6.49
7.483592987060547,4.47,4.66,1.98,6.75
7.4940550327301025,5.54,3.82,2.41,7.14
7.503407001495361,6.44,2.78,2.41,7.41
7.512847185134888,7.17,1.85,2.17,7.71
7.522930860519409,7.02,0.73,1.85,7.29
7.53387713432312,6.86,-0.42,1.51,7.03
7.544195890426636,6.97,-1.33,1.14,7.18
7.553603887557983,6.73,-2.18,0.72,7.11
7.562887907028198,6.41,-3.12,0.12,7.13
7.572916030883789,6.27,-3.85,-0.49,7.37
7.583811044692993,6.27,-4.3,-1.01,7.66
7.5943028926849365,6.65,-4.53,-1.52,8.18
7.603627920150757,7.23,-4.59,-1.69,8.72
7.61299204826355,7.3,-5.01,-1.21,8.93
7.623041868209839,7.09,-5.67,-0.64,9.1
7.6339099407196045,6.65,-6.18,-0.19,9.08
7.644144058227539,6.0,-6.3,0.21,8.7
7.653676986694336,5.76,-6.3,0.37,8.54
7.66315484046936,5.87,-6.32,0.45,8.63
7.672904014587402,6.0,-6.33,0.45,8.73
7.683896064758301,5.88,-6.41,0.33,8.7
7.6944029331207275,5.7,-6.45,0.18,8.6
7.703706979751587,5.42,-6.53,0.05,8.48
7.712954998016357,5.14,-6.57,-0.12,8.34
7.723069906234741,4.95,-6.59,-0.28,8.24
7.73393988609314,4.94,-6.63,-0.6,8.28
7.744422197341919,4.7,-6.68,-1.14,8.24
7.7537360191345215,4.48,-6.63,-1.52,8.14
7.7631120681762695,4.31,-6.43,-1.76,7.93
7.773169040679932,4.18,-6.23,-1.92,7.74
7.783894062042236,4.2,-6.02,-2.12,7.64
7.79442286491394,4.26,-5.63,-2.31,7.42
7.803839921951294,4.21,-5.4,-2.45,7.27
7.812997102737427,4.21,-5.48,-2.38,7.3
7.823199987411499,4.29,-5.69,-2.11,7.43
7.833989858627319,4.2,-6.0,-1.79,7.53
7.844383001327515,3.74,-6.21,-1.46,7.39
7.853771924972534,3.14,-6.02,-1.18,6.89
7.863218069076538,2.87,-5.63,-0.76,6.36
7.873139142990112,2.94,-5.36,-0.41,6.12
7.884001970291138,3.49,-4.9,-0.31,6.02
7.8944761753082275,4.37,-4.19,-0.32,6.06
7.903990030288696,4.75,-3.38,-0.22,5.83
7.913060903549194,4.64,-2.74,0.01,5.38
7.923135042190552,4.36,-2.01,0.25,4.8
7.9339940547943115,4.13,-1.16,0.55,4.32
7.94438910484314,4.05,-0.1,1.1,4.19
7.953778982162476,4.66,0.99,1.72,5.06
7.962968111038208,5.45,2.07,2.36,6.28
7.9729979038238525,5.58,3.31,3.09,7.18
7.983918905258179,5.34,4.05,3.17,7.41
7.994601011276245,5.07,4.13,2.91,7.15
8.00363302230835,4.36,4.13,2.74,6.6
8.013074159622192,3.43,4.12,2.77,6.03
8.023230075836182,2.62,4.51,2.89,5.96
8.033857107162476,1.98,5.06,3.12,6.26
8.044378995895386,1.63,5.33,3.19,6.42
8.05390191078186,1.38,5.58,3.2,6.57
8.06315302848816,0.99,5.77,2.97,6.56
8.073261976242065,0.29,6.03,2.27,6.44
8.084020853042603,-0.4,6.09,1.6,6.3
8.094422101974487,-1.02,5.97,1.15,6.16
8.103942155838013,-1.78,5.9,0.88,6.22
8.11313509941101,-2.36,6.19,0.81,6.67
8.12338399887085,-2.83,6.88,0.92,7.49
8.134053945541382,-3.08,7.52,1.06,8.19
8.144505977630615,-3.13,7.85,0.86,8.49
8.153867959976196,-3.11,8.15,0.62,8.74
8.16316294670105,-3.62,8.05,0.31,8.83
8.17306900024414,-4.24,8.0,0.34,9.06
8.184026956558228,-4.8,8.2,0.49,9.51
8.194550037384033,-5.33,8.29,0.71,9.88
8.204154014587402,-5.75,8.33,0.95,10.16
8.21318006515503,-5.68,8.31,1.16,10.13
8.223427057266235,-4.92,8.51,1.67,9.97
8.234132051467896,-3.73,8.84,2.14,9.83
8.244461059570312,-2.64,8.93,2.5,9.64
8.253951072692871,-2.0,8.75,2.97,9.45
8.263256072998047,-1.81,8.33,3.72,9.3
8.27314019203186,-1.77,7.96,4.55,9.33
8.28432297706604,-1.9,7.53,5.15,9.31
8.294647932052612,-1.89,7.05,5.35,9.04
8.3041410446167,-1.54,6.63,4.87,8.36
8.313241004943848,-1.32,6.41,4.21,7.78
8.32349419593811,-0.89,6.37,3.63,7.38
8.334297895431519,-0.08,6.4,3.05,7.09
8.344637155532837,0.82,6.54,2.74,7.13
8.35419487953186,1.64,6.45,2.45,7.09
8.363341093063354,2.07,5.9,2.1,6.59
8.373466968536377,2.26,5.5,2.13,6.31
8.38449501991272,2.54,5.27,2.27,6.27
8.394546031951904,3.46,4.81,2.35,6.37
8.404184103012085,4.51,4.28,2.32,6.63
8.413222074508667,5.46,3.65,2.17,6.91
8.423507928848267,6.17,2.8,1.8,7.01
8.434314012527466,6.57,1.79,1.47,6.96
8.444817066192627,6.71,0.81,1.25,6.87
8.454226970672607,6.65,-0.2,0.84,6.7
8.463358163833618,6.45,-1.25,0.28,6.57
8.473436117172241,6.31,-1.97,-0.21,6.61
8.484112977981567,6.19,-2.38,-0.63,6.66
8.494579076766968,6.14,-2.93,-1.03,6.88
8.50406002998352,6.21,-3.56,-1.32,7.27
8.513290166854858,6.16,-4.19,-1.52,7.6
8.523308038711548,6.08,-4.66,-1.41,7.78
8.534191846847534,5.88,-4.9,-1.07,7.72
8.544595956802368,5.61,-5.16,-0.76,7.65
8.554064989089966,5.27,-5.57,-0.73,7.7
8.56343698501587,5.05,-6.08,-0.82,7.94
8.573240995407104,4.82,-6.39,-0.81,8.04
8.584374189376831,4.68,-6.55,-0.71,8.08
8.594578981399536,4.57,-6.53,-0.62,7.99
8.60423493385315,4.54,-6.18,-0.38,7.67
8.613381147384644,4.48,-5.82,-0.54,7.36
8.623579025268555,4.55,-5.89,-1.05,7.51
8.634634017944336,4.48,-5.91,-1.49,7.56
8.644605875015259,4.27,-5.7,-1.65,7.31
8.654310941696167,4.06,-5.62,-1.79,7.16
8.663418054580688,3.85,-5.82,-2.05,7.27
8.673614978790283,3.48,-5.92,-2.31,7.24
8.684373140335083,3.11,-5.92,-2.57,7.16
8.694892168045044,2.87,-5.82,-2.7,7.02
8.704375982284546,2.75,-5.72,-2.74,6.91
8.713360071182251,2.77,-5.64,-2.72,6.84
8.723422050476074,2.87,-5.51,-2.66,6.75
8.7342369556427,2.89,-5.38,-2.41,6.56
8.74465799331665,2.81,-5.17,-2.04,6.22
8.754240036010742,2.82,-4.93,-1.75,5.94
8.763377904891968,2.71,-4.6,-1.51,5.54
8.773492097854614,2.63,-4.32,-1.27,5.21
8.784234046936035,2.84,-4.06,-1.02,5.05
8.794502019882202,3.06,-3.8,-0.82,4.94
8.804281949996948,3.34,-3.59,-0.67,4.94
8.81348204612732,3.52,-3.31,-0.32,4.84
8.823467016220093,3.69,-3.02,0.21,4.77
8.834460973739624,4.02,-2.62,0.85,4.87
8.844624042510986,4.32,-2.32,1.32,5.07
8.854320049285889,4.4,-1.89,1.58,5.04
8.863436937332153,4.56,-1.3,1.83,5.08
8.873475074768066,4.86,-0.81,2.11,5.35
8.88433289527893,5.1,-0.14,2.28,5.58
8.89448094367981,5.05,1.19,2.62,5.81
8.904273986816406,4.96,2.07,2.33,5.85
8.913513898849487,5.08,2.35,1.5,5.79
8.923441171646118,4.79,2.71,0.62,5.53
8.934399843215942,4.52,3.19,0.01,5.53
8.944445848464966,4.05,3.68,-0.25,5.47
8.954240083694458,3.49,3.88,-0.6,5.25
8.963505029678345,2.82,4.06,-0.95,5.03
8.973481893539429,2.19,4.15,-1.0,4.79
8.984416961669922,1.68,4.06,-1.06,4.51
8.994476079940796,1.0,4.05,-1.28,4.36
9.004333972930908,0.35,4.06,-1.37,4.29
9.013565063476562,-0.02,3.88,-1.15,4.04
9.023692846298218,-0.31,4.03,-0.55,4.07
9.034409999847412,-0.61,4.46,0.29,4.51
9.04443097114563,-0.91,4.43,0.84,4.59
9.05432391166687,-1.24,4.49,1.29,4.83
9.063681840896606,-1.45,4.76,1.98,5.35
9.073631048202515,-1.58,4.9,2.58,5.75
9.08448600769043,-1.86,5.06,3.13,6.23
9.094385862350464,-2.47,5.3,3.85,7.0
9.104351997375488,-3.35,5.31,4.24,7.57
9.113639116287231,-4.03,5.58,4.29,8.11
9.123671054840088,-4.56,5.99,4.24,8.64
9.134387016296387,-4.68,6.27,4.04,8.8
9.144391059875488,-4.79,6.59,3.72,8.95
9.154314041137695,-5.18,6.74,3.36,9.14
9.163437128067017,-5.5,6.93,3.2,9.4
9.173648118972778,-5.59,7.35,3.19,9.76
9.184512853622437,-5.13,7.86,3.27,9.93
9.194386005401611,-4.41,8.15,3.23,9.81
9.20434308052063,-3.55,8.08,3.18,9.38
9.213588953018188,-3.03,7.97,3.38,9.17
9.223680973052979,-2.77,7.95,3.7,9.19
9.23448896408081,-2.55,7.89,4.05,9.22
9.24440312385559,-2.5,7.81,4.31,9.26
9.254337072372437,-2.09,7.51,3.83,8.68
9.263578176498413,-1.86,7.38,3.14,8.23
9.27351999282837,-1.93,7.55,2.63,8.22
9.284483194351196,-1.63,7.61,2.05,8.04
9.294528007507324,-0.84,7.83,1.51,8.01
9.30436396598816,-0.18,8.01,1.22,8.1
9.313557863235474,0.46,8.01,1.1,8.09
9.323777914047241,1.4,8.04,1.47,8.29
9.334625959396362,2.38,8.03,2.16,8.64
9.344570875167847,3.09,7.7,2.64,8.7
9.354362964630127,3.74,7.09,2.85,8.5
9.363699197769165,4.88,6.74,2.94,8.82
9.373719930648804,5.91,6.65,2.86,9.34
9.384578943252563,6.34,5.85,2.48,8.97
9.394454002380371,6.74,4.44,1.94,8.3
9.404495000839233,6.81,3.22,1.54,7.68
9.413621187210083,6.64,2.18,1.09,7.07
9.423722982406616,6.52,1.03,0.38,6.61
9.43454384803772,6.68,0.02,-0.35,6.68
9.444578886032104,6.76,-0.77,-0.91,6.86
9.45441198348999,6.83,-1.63,-1.43,7.16
9.46352505683899,6.76,-2.46,-1.84,7.42
9.473635911941528,6.62,-3.12,-2.14,7.62
9.484668970108032,6.48,-3.72,-2.32,7.82
9.494539976119995,6.49,-4.3,-2.16,8.07
9.504544019699097,7.03,-4.81,-1.75,8.69
9.513792037963867,7.41,-5.12,-1.24,9.09
9.523762941360474,7.27,-5.31,-0.77,9.03
9.534711122512817,7.15,-5.59,-0.5,9.08
9.544585943222046,7.01,-5.96,-0.43,9.21
9.554450988769531,7.13,-6.25,-0.43,9.49
9.563871145248413,7.18,-6.3,-0.41,9.56
9.573838949203491,7.02,-6.47,-0.43,9.55
9.584791898727417,6.64,-6.69,-0.57,9.44
9.594738960266113,6.21,-7.07,-0.91,9.45
9.604565858840942,6.0,-7.49,-1.34,9.68
9.613834142684937,5.67,-7.61,-1.75,9.65
9.623795986175537,5.23,-7.61,-2.14,9.47
9.634716987609863,4.95,-7.71,-2.34,9.45
9.644762992858887,4.84,-7.81,-2.44,9.5
9.654582977294922,4.66,-7.7,-2.48,9.33
9.663872957229614,4.51,-7.4,-2.49,9.01
9.673788070678711,4.58,-7.07,-2.47,8.77
9.684759855270386,4.66,-7.12,-2.39,8.83
9.6945641040802,4.62,-7.5,-2.25,9.09
9.704662084579468,4.29,-7.71,-1.95,9.03
9.713742971420288,3.95,-7.78,-1.58,8.86
9.723932027816772,3.78,-7.9,-1.21,8.84
9.734755039215088,3.71,-7.95,-0.88,8.81
9.744752168655396,3.76,-7.75,-0.72,8.64
9.754523992538452,4.12,-7.21,-0.77,8.33
9.76381802558899,4.37,-6.49,-0.63,7.84
9.773951053619385,4.5,-5.71,-0.36,7.27
9.784607172012329,4.71,-4.7,0.05,6.65
9.794573068618774,4.91,-3.59,0.64,6.11
9.804610013961792,5.15,-2.95,0.93,6.0
9.813801050186157,5.87,-2.31,1.1,6.4
9.82394003868103,7.3,-0.76,1.36,7.46
9.83458685874939,8.21,1.08,1.64,8.44
9.844929933547974,8.36,2.38,1.74,8.86
9.854632139205933,8.16,3.34,1.72,8.98
9.863837003707886,7.48,4.14,1.92,8.76
9.87393593788147,6.95,5.15,2.29,8.94
9.884727001190186,7.12,6.54,2.52,9.99
9.89474606513977,7.34,7.61,2.76,10.92
9.904643058776855,6.68,8.01,2.84,10.8
9.913940191268921,5.3,7.89,2.62,9.85
9.924041032791138,3.55,7.83,2.4,8.92
9.934848070144653,1.8,8.0,2.31,8.51
9.944907903671265,0.66,8.07,2.02,8.34
9.954673051834106,0.12,8.07,1.45,8.2
9.964007139205933,-0.08,8.12,0.93,8.17
9.97392201423645,-0.48,8.07,0.8,8.12
9.984718084335327,-1.2,7.96,0.76,8.08
9.994898080825806,-1.84,7.88,0.61,8.11
10.004693984985352,-2.47,7.52,0.44,7.92
10.013875007629395,-3.27,7.17,0.4,7.89
10.024013996124268,-4.13,6.9,0.47,8.05
10.034730195999146,-5.01,6.44,0.58,8.17
10.045038938522339,-5.69,6.21,0.72,8.45
10.05466103553772,-5.81,6.39,1.12,8.7
10.064016103744507,-5.28,6.96,1.47,8.85
10.073972940444946,-4.56,7.65,1.64,9.05
10.0850088596344,-4.04,7.99,1.51,9.07
10.094882011413574,-3.94,7.73,1.2,8.75
10.104687929153442,-3.88,7.83,1.17,8.81
10.11397385597229,-3.66,8.22,1.31,9.09
10.124126195907593,-3.43,8.46,1.66,9.27
10.134780168533325,-3.16,9.0,2.46,9.85
10.144942045211792,-2.53,9.94,3.49,10.83
10.154733896255493,-1.34,11.16,4.26,12.02
10.164048910140991,0.12,11.98,4.34,12.74
10.173947095870972,1.52,12.22,3.73,12.86
10.184830904006958,2.42,12.37,3.43,13.06
10.19503402709961,3.02,12.23,3.35,13.03
10.204843044281006,3.54,11.71,3.22,12.65
10.21415901184082,3.73,10.92,3.3,12.0
10.224109888076782,4.11,10.04,3.63,11.43
10.234863042831421,4.85,9.13,3.87,11.03
10.245056867599487,5.69,8.18,3.55,10.57
10.254801988601685,6.54,7.06,2.68,9.98
10.264033079147339,7.22,5.48,1.75,9.23
10.274013042449951,7.43,3.91,1.33,8.5
10.28482985496521,7.44,2.91,1.34,8.1
10.294925928115845,7.45,1.94,1.43,7.83
10.304774045944214,7.54,0.51,1.23,7.65
10.314109086990356,7.47,-0.73,0.94,7.56
10.324221849441528,7.31,-1.42,0.8,7.48
10.335333108901978,7.54,-2.04,0.77,7.84
10.345005989074707,7.84,-2.74,0.64,8.32
10.354865074157715,8.07,-3.34,0.3,8.73
10.364212989807129,8.2,-4.0,-0.17,9.12
10.374099016189575,8.12,-4.92,-0.6,9.51
10.385171175003052,7.85,-5.85,-0.85,9.82
10.394989013671875,7.33,-6.51,-0.93,9.84
10.405019044876099,6.73,-7.16,-1.02,9.87
10.414147138595581,6.11,-7.73,-1.06,9.91
10.424164056777954,5.49,-8.15,-1.05,9.88
10.435394048690796,5.07,-8.35,-1.02,9.82
10.445083856582642,4.86,-8.41,-1.07,9.77
10.454742193222046,4.79,-8.35,-1.22,9.7
10.464278936386108,4.7,-8.28,-1.53,9.64
10.474698066711426,4.67,-8.29,-1.85,9.69
10.485169172286987,4.57,-8.28,-2.12,9.69
10.499600172042847,4.28,-8.29,-2.29,9.6
10.50516390800476,3.96,-8.25,-2.42,9.46
10.514218091964722,3.75,-8.08,-2.47,9.24
10.524594068527222,3.53,-7.89,-2.44,8.98
10.53524899482727,3.36,-7.75,-2.38,8.77
10.549217939376831,3.13,-7.69,-2.34,8.62
10.554955005645752,2.84,-7.65,-2.29,8.47
10.564352035522461,2.73,-7.52,-2.15,8.28
10.57469916343689,2.8,-7.17,-1.94,7.93
10.585416078567505,3.01,-6.75,-1.74,7.59
10.599538087844849,3.48,-6.43,-1.57,7.47
10.605195045471191,3.67,-6.32,-1.42,7.44
10.614273071289062,3.56,-6.26,-1.27,7.31
10.6248939037323,3.47,-6.07,-1.08,7.07
10.635329961776733,3.24,-5.8,-0.92,6.7
10.648780107498169,3.18,-5.59,-0.95,6.5
10.65490984916687,3.36,-5.36,-1.02,6.4
10.664203882217407,3.57,-5.21,-1.06,6.4
10.674623012542725,3.8,-5.33,-1.17,6.64
10.685196161270142,3.9,-5.54,-1.21,6.88
10.698729991912842,3.65,-5.71,-1.08,6.86
10.704874992370605,3.18,-5.91,-0.96,6.77
10.714275121688843,3.03,-5.95,-1.05,6.75
10.724655866622925,3.72,-5.28,-1.31,6.59
10.735352039337158,4.33,-4.29,-1.13,6.19
10.74886703491211,4.83,-3.71,-0.79,6.14
10.754964113235474,5.19,-3.17,-0.47,6.09
10.764435052871704,5.51,-2.03,0.26,5.87
10.774850130081177,6.41,-0.41,0.96,6.49
10.785521984100342,7.74,1.28,1.08,7.91
10.799416065216064,8.86,2.98,1.03,9.4
10.80502700805664,9.06,4.04,0.79,9.95
10.814440965652466,8.87,4.39,0.39,9.9
10.824903011322021,8.43,4.62,0.31,9.61
10.835570096969604,7.72,5.15,0.55,9.29
10.849217176437378,7.53,5.87,1.07,9.6
10.855224847793579,7.46,6.31,1.84,9.94
10.86435604095459,7.26,6.75,2.33,10.18
10.874810934066772,6.82,7.5,2.57,10.45
10.885409116744995,6.04,8.12,2.65,10.46
10.898462057113647,5.44,8.08,2.79,10.13
10.905216932296753,4.69,7.96,2.91,9.68
10.914321184158325,3.55,7.8,3.09,9.1
10.924782991409302,2.25,7.45,3.11,8.38
10.935170888900757,0.76,7.12,3.05,7.78
10.948356866836548,-0.44,6.83,2.91,7.43
10.9549081325531,-1.17,6.7,2.58,7.27
10.964357137680054,-1.81,6.81,2.12,7.35
10.97472596168518,-2.4,6.82,1.58,7.4
10.985241174697876,-2.88,6.69,1.11,7.36
10.998318910598755,-3.58,6.67,0.89,7.62
11.00519585609436,-4.13,6.9,0.88,8.08
11.014407873153687,-4.25,7.23,1.06,8.45
11.024840116500854,-4.18,7.49,1.39,8.68
11.03546690940857,-3.96,7.81,1.81,8.94
11.048123121261597,-3.72,8.07,2.26,9.16
11.055113077163696,-3.58,8.0,2.67,9.16
11.064504861831665,-3.61,7.67,3.1,9.02
11.074890851974487,-3.44,7.45,3.46,8.9
11.085592985153198,-3.08,7.65,3.71,9.04
11.098376989364624,-2.56,8.17,3.88,9.39
11.10512089729309,-1.87,8.78,3.69,9.7
11.114354848861694,-0.84,9.53,3.14,10.06
11.124973058700562,0.52,10.61,2.56,10.92
11.135451078414917,1.82,11.57,2.2,11.91
11.149055004119873,2.79,11.67,1.92,12.15
11.155154943466187,3.27,11.0,1.82,11.61
11.164399862289429,3.43,10.39,2.18,11.15
11.17495608329773,3.3,10.01,2.86,10.92
11.185672998428345,3.45,9.19,3.19,10.32
11.198087930679321,4.11,8.24,3.28,9.77
11.204987049102783,4.9,7.44,3.11,9.43
11.21442699432373,5.82,6.84,2.67,9.36
11.224752187728882,6.44,5.87,1.76,8.88
11.235347986221313,6.83,4.55,0.75,8.24
11.248300075531006,7.39,3.48,-0.03,8.16
11.255267858505249,7.64,2.0,-0.49,7.91
11.26448106765747,7.02,0.29,-0.58,7.04
11.27495789527893,6.34,-1.05,-0.45,6.44
11.285657167434692,5.93,-1.95,-0.35,6.25
11.29803204536438,5.63,-2.46,-0.35,6.15
11.305289030075073,5.89,-2.82,-0.31,6.53
11.314493894577026,6.4,-3.24,-0.3,7.17
11.324946165084839,6.73,-3.75,-0.35,7.71
11.335651159286499,6.88,-4.31,-0.39,8.12
11.348398923873901,6.84,-4.87,-0.34,8.4
11.355278015136719,6.58,-5.47,-0.21,8.55
11.364546060562134,6.27,-6.05,-0.05,8.71
11.374897003173828,5.96,-6.42,0.11,8.76
11.385710954666138,5.62,-6.84,0.06,8.85
11.39857006072998,5.36,-7.35,-0.19,9.09
11.40533709526062,5.11,-7.7,-0.5,9.25
11.414459943771362,4.86,-7.77,-0.73,9.19
11.424991846084595,4.56,-7.86,-0.93,9.13
11.435621976852417,4.32,-8.03,-1.16,9.19
11.448200941085815,4.02,-8.09,-1.38,9.13
11.455290079116821,3.63,-8.03,-1.57,8.95
11.464644193649292,3.4,-7.87,-1.82,8.76
11.475023984909058,3.25,-7.71,-2.01,8.6
11.485583066940308,3.26,-7.55,-2.14,8.49
11.498067140579224,3.36,-7.34,-2.23,8.37
11.505373001098633,3.32,-7.08,-2.3,8.15
11.514600992202759,3.22,-6.88,-2.38,7.96
11.524749994277954,3.19,-6.73,-2.43,7.83
11.535454988479614,3.1,-6.67,-2.43,7.74
11.547813177108765,2.98,-6.5,-2.31,7.51
11.555245161056519,2.83,-6.37,-2.1,7.27
11.564656972885132,2.82,-6.39,-1.77,7.2
11.574833154678345,2.9,-6.51,-1.45,7.27
11.58551812171936,2.88,-6.54,-1.13,7.23
11.597854852676392,2.84,-6.53,-0.79,7.16
11.605269193649292,2.99,-6.38,-0.5,7.06
11.6146399974823,3.02,-6.37,-0.3,7.05
11.624722003936768,3.01,-6.52,-0.24,7.18
11.635807037353516,2.91,-6.67,-0.11,7.27
11.647732019424438,2.77,-6.63,0.13,7.18
11.655277967453003,2.83,-6.35,0.35,6.96
11.66468596458435,3.17,-5.91,0.44,6.72
11.674674987792969,3.5,-5.38,0.47,6.43
11.685667037963867,3.83,-4.69,0.45,6.07
11.697972059249878,4.41,-3.62,0.9,5.77
11.705368995666504,5.08,-2.31,1.49,5.77
11.714865922927856,5.8,-1.19,1.62,6.13
11.724689960479736,6.71,0.04,1.56,6.88
11.735517024993896,7.35,1.59,1.39,7.64
11.748147010803223,7.97,3.11,0.83,8.59
11.7554030418396,8.37,4.3,0.09,9.41
11.764657020568848,8.16,5.46,-0.47,9.82
11.774816036224365,7.84,6.53,-0.71,10.22
11.78574800491333,7.53,6.81,-1.12,10.21
11.798829078674316,7.04,6.79,-1.4,9.88
11.805482149124146,6.23,7.39,-1.09,9.72
11.814643144607544,5.3,7.27,-0.62,9.01
11.82474398612976,4.04,6.48,-0.5,7.65
11.83597707748413,2.47,6.03,-0.55,6.53
11.848481893539429,1.49,5.8,-0.67,6.02
11.85551905632019,0.71,5.0,-0.74,5.1
11.864858865737915,-0.09,5.16,-0.52,5.18
11.87480902671814,-0.19,5.73,-0.02,5.73
11.885823011398315,0.34,6.65,0.87,6.71
11.898578882217407,0.24,6.51,2.1,6.84
11.905431032180786,-0.93,5.84,3.21,6.72
11.914765119552612,-1.63,6.2,4.34,7.74
11.924841165542603,-1.72,6.28,5.03,8.22
11.935930013656616,-1.81,6.61,5.06,8.51
11.948434114456177,-1.97,6.73,4.54,8.35
11.955476999282837,-2.53,6.73,3.95,8.2
11.964974164962769,-2.78,6.85,3.48,8.17
11.974753141403198,-2.53,6.99,2.9,7.97
11.985778093338013,-2.58,6.96,2.65,7.88
11.998335123062134,-2.81,6.96,2.53,7.92
12.005571126937866,-3.1,7.03,2.71,8.14
12.014838933944702,-3.26,7.37,2.94,8.57
12.024783849716187,-3.15,7.87,2.93,8.96
12.036083936691284,-2.61,8.67,2.94,9.51
12.048542976379395,-1.65,9.65,2.63,10.13
12.055705070495605,-0.22,10.89,2.2,11.11
12.065016984939575,1.09,11.84,1.73,12.01
12.07480788230896,2.0,12.24,1.49,12.49
12.08615517616272,2.68,12.34,1.61,12.72
12.098526000976562,3.29,12.34,2.48,13.0
12.105594873428345,4.11,12.08,3.62,13.26
12.114881992340088,5.17,11.62,4.36,13.44
12.124901056289673,5.71,10.84,4.73,13.13
12.136157989501953,5.98,9.56,4.62,12.18
12.148741960525513,6.36,8.47,4.37,11.45
12.155680894851685,7.1,7.69,3.91,11.17
12.164971113204956,7.96,6.65,2.89,10.76
12.174906015396118,8.57,5.23,1.82,10.2
12.186460018157959,8.71,3.68,1.04,9.51
12.19862699508667,8.51,2.27,0.57,8.82
12.205745935440063,8.25,1.19,0.24,8.33
12.215023040771484,8.22,0.07,-0.11,8.22
12.224959135055542,8.43,-1.23,-0.45,8.53
12.235941171646118,8.46,-2.51,-0.7,8.85
12.24811601638794,8.33,-3.58,-0.84,9.1
12.255712985992432,8.32,-4.43,-1.19,9.5
12.26493501663208,8.2,-5.03,-1.57,9.74
12.274865865707397,7.8,-5.58,-1.79,9.75
12.285866022109985,7.5,-6.29,-2.0,9.99
12.297620058059692,7.2,-7.04,-2.15,10.29
12.30561900138855,6.79,-7.78,-2.2,10.55
12.314975023269653,6.23,-8.61,-2.14,10.84
12.325000047683716,5.57,-9.17,-1.82,10.88
12.336025953292847,5.03,-9.41,-1.43,10.76
12.347815990447998,4.66,-9.68,-1.1,10.79
12.35567307472229,4.29,-9.91,-0.92,10.83
12.36493706703186,3.98,-9.95,-0.9,10.75
12.375036001205444,3.95,-9.9,-1.02,10.7
12.386031866073608,3.94,-9.86,-1.14,10.67
12.398167848587036,4.0,-9.71,-1.25,10.57
12.405711889266968,4.05,-9.44,-1.3,10.35
12.414887189865112,4.09,-9.15,-1.28,10.1
12.424978971481323,4.08,-8.87,-1.28,9.84
12.436198949813843,3.88,-8.69,-1.38,9.61
12.448269128799438,3.74,-8.63,-1.52,9.52
12.455722093582153,3.59,-8.54,-1.68,9.41
12.464945077896118,3.52,-8.3,-1.7,9.17
12.475168943405151,3.6,-8.04,-1.55,8.94
12.4861581325531,3.76,-7.91,-1.33,8.85
12.498253107070923,3.84,-7.94,-1.1,8.88
12.505823850631714,3.92,-8.0,-0.98,8.96
12.515038967132568,3.98,-7.89,-0.8,8.87
12.525084018707275,3.89,-7.66,-0.49,8.6
12.536192178726196,3.93,-7.51,-0.25,8.47
12.548187017440796,3.87,-7.44,0.0,8.38
12.555788040161133,3.67,-7.53,0.19,8.37
12.564974069595337,3.51,-7.76,0.27,8.52
12.575155973434448,3.54,-7.89,0.38,8.65
12.58617091178894,3.42,-7.91,0.51,8.63
12.59778618812561,3.2,-7.96,0.57,8.59
12.605809926986694,3.46,-7.83,0.4,8.56
12.61499285697937,5.38,-6.42,-0.13,8.37
12.625189065933228,7.24,-3.8,-0.2,8.17
12.636270999908447,8.24,-1.53,-0.39,8.38
12.64790415763855,9.01,-0.24,-1.03,9.07
12.656272172927856,10.04,1.03,-1.71,10.23
12.664995908737183,10.45,2.33,-2.06,10.9
12.675230979919434,9.97,3.53,-2.03,10.76
12.686243057250977,9.2,4.45,-2.07,10.42
12.698021173477173,8.94,5.36,-1.98,10.61
12.706251859664917,9.54,7.03,-1.5,11.94
12.715075016021729,9.74,8.41,-1.04,12.91
12.725250005722046,9.29,8.6,-0.65,12.67
12.736200094223022,8.5,8.52,-0.01,12.03
12.747178077697754,7.73,8.51,1.01,11.54
12.75612187385559,6.63,8.47,2.26,10.99
12.764981031417847,5.27,8.42,3.38,10.49
12.775099992752075,4.05,8.25,4.18,10.09
12.786060094833374,3.02,7.64,4.37,9.3
12.797538995742798,2.05,7.7,4.6,9.2
12.806079149246216,2.13,9.43,4.73,10.76
12.81508994102478,2.06,10.41,5.18,11.8
12.825194120407104,0.09,9.04,4.47,10.08
12.836281061172485,-2.14,8.24,3.65,9.26
12.84767198562622,-3.4,7.49,3.45,8.91
12.856096029281616,-3.53,7.59,3.22,8.96
12.86513900756836,-3.42,8.2,2.53,9.23
12.875201940536499,-3.16,8.76,1.98,9.52
12.886089086532593,-3.2,8.93,1.56,9.61
12.897161960601807,-3.73,8.63,1.13,9.46
12.9061758518219,-4.42,8.01,1.23,9.23
12.915126085281372,-4.97,7.8,1.46,9.36
12.925076961517334,-4.78,7.88,1.43,9.32
12.936103105545044,-4.35,7.99,1.36,9.19
12.946880102157593,-3.79,8.18,1.08,9.07
12.956155061721802,-2.97,8.84,1.0,9.37
12.965046167373657,-1.97,9.75,1.26,10.02
12.975201845169067,-0.51,10.56,1.6,10.69
12.986145973205566,0.92,11.02,1.79,11.2
12.997416019439697,2.17,10.98,1.91,11.35
13.006299018859863,2.94,10.53,2.11,11.13
13.015367031097412,3.11,9.76,2.46,10.53
13.025362968444824,2.95,8.88,2.87,9.78
13.036272048950195,3.01,8.3,3.09,9.35
13.047160863876343,3.43,8.04,3.12,9.28
13.05627989768982,3.98,7.47,2.79,8.91
13.06522011756897,4.78,6.62,2.11,8.43
13.075300931930542,5.44,6.16,1.29,8.31
13.086184024810791,5.95,5.87,0.52,8.37
13.097327947616577,6.16,5.65,-0.21,8.36
13.106502056121826,6.37,5.5,-1.06,8.48
13.115156888961792,7.44,5.11,-1.72,9.18
13.1252920627594,8.48,5.33,-1.68,10.15
13.136330842971802,9.74,5.56,-1.29,11.28
13.147524118423462,10.74,4.38,-0.77,11.62
13.156394004821777,10.92,2.47,0.0,11.19
13.165187120437622,10.64,0.81,0.8,10.7
13.17530107498169,10.19,-0.5,1.36,10.29
13.186243057250977,9.7,-1.45,1.67,9.94
13.196877002716064,9.38,-2.4,1.77,9.84
13.206284999847412,9.24,-3.4,1.45,9.95
13.215222120285034,9.15,-4.5,0.83,10.23
13.225244998931885,8.97,-5.69,0.15,10.62
13.236247062683105,8.42,-6.73,-0.32,10.78
13.247012853622437,7.48,-7.54,-0.62,10.63
13.256375074386597,6.53,-8.22,-0.77,10.52
13.265269994735718,5.73,-8.71,-0.86,10.46
13.27533507347107,5.04,-8.99,-0.97,10.35
13.28632402420044,4.54,-9.17,-1.08,10.28
13.296985864639282,4.46,-9.04,-1.17,10.14
13.306390047073364,4.55,-8.62,-1.48,9.85
13.315376043319702,4.56,-8.56,-1.85,9.87
13.325464963912964,4.58,-8.72,-2.08,10.06
13.336405992507935,4.64,-8.58,-2.2,9.99
13.346614122390747,4.68,-8.29,-2.21,9.77
13.356222867965698,4.57,-8.28,-2.12,9.69
13.365318059921265,4.35,-8.35,-1.98,9.62
13.375300168991089,4.18,-8.23,-1.92,9.42
13.386183977127075,4.09,-8.11,-1.84,9.26
13.396599054336548,4.06,-8.09,-1.72,9.21
13.406431913375854,4.04,-8.12,-1.63,9.21
13.415341138839722,4.12,-8.11,-1.6,9.23
13.425426006317139,4.26,-8.05,-1.51,9.23
13.436414003372192,4.34,-8.07,-1.38,9.26
13.446685075759888,4.27,-8.11,-1.27,9.25
13.456392049789429,4.05,-8.1,-1.15,9.12
13.465298891067505,3.82,-8.05,-1.0,8.96
13.47542405128479,3.69,-7.92,-0.91,8.78
13.486311197280884,3.97,-7.56,-1.08,8.6
13.496472120285034,4.82,-6.66,-1.33,8.32
13.506518125534058,5.59,-5.83,-1.52,8.21
13.515328168869019,6.07,-5.7,-1.77,8.51
13.525426149368286,5.92,-5.76,-1.88,8.47
13.536388158798218,5.31,-5.69,-1.76,7.97
13.546135187149048,4.9,-5.53,-1.42,7.52
13.556628942489624,4.81,-5.13,-0.92,7.09
13.565368890762329,5.34,-4.36,-0.37,6.9
13.575537919998169,6.58,-2.88,0.33,7.19
13.586456060409546,7.89,-0.72,0.96,7.98
13.59675908088684,9.04,1.51,1.19,9.24
13.606531858444214,10.1,3.58,0.88,10.75
13.615369081497192,9.87,4.59,0.25,10.88
13.625550031661987,8.69,4.71,-0.29,9.88
13.636715173721313,7.44,4.87,-0.28,8.89
13.647004842758179,6.31,4.73,0.22,7.88
13.656530141830444,5.16,4.6,1.02,6.98
13.665416955947876,4.0,4.94,1.88,6.62
13.67557692527771,3.38,5.21,2.48,6.68
13.686408042907715,3.19,5.34,2.66,6.76
13.696613073348999,3.07,5.7,2.62,6.98
13.706578969955444,3.1,6.2,2.5,7.36
13.715655088424683,3.41,6.74,2.51,7.95
13.725673913955688,3.47,7.05,3.17,8.47
13.736587047576904,3.23,7.37,4.38,9.16
13.746922016143799,2.47,7.92,5.61,10.01
13.756574869155884,1.47,8.58,6.56,10.9
13.765505075454712,0.32,9.16,7.89,12.09
13.775544881820679,0.19,9.47,8.35,12.62
13.786700963973999,-0.05,9.42,8.13,12.44
13.797258138656616,-0.9,10.03,7.05,12.29
13.806596040725708,-1.4,10.0,5.03,11.28
13.81546401977539,-1.14,9.74,3.23,10.32
13.825566053390503,-1.89,10.05,1.98,10.41
13.836848974227905,-2.5,10.22,1.58,10.63
13.84809398651123,-2.85,10.06,1.68,10.59
13.856647968292236,-3.37,9.91,2.12,10.67
13.865657091140747,-3.78,9.62,2.43,10.61
13.87567687034607,-3.74,9.54,2.31,10.5
13.88678503036499,-3.34,9.6,1.25,10.24
13.897199869155884,-2.91,9.87,0.57,10.3
13.906712055206299,-2.18,9.94,-0.13,10.17
13.915770053863525,-1.36,10.05,-0.73,10.16
13.925645112991333,-0.64,10.33,-1.01,10.39
13.936784982681274,0.22,10.75,-0.59,10.76
13.947481870651245,1.38,11.03,0.2,11.11
13.956681966781616,2.5,11.02,0.89,11.33
13.965699911117554,3.41,11.05,1.55,11.66
13.975610971450806,4.38,11.48,2.19,12.48
13.986608982086182,5.46,11.79,2.6,13.25
13.996953964233398,6.9,11.48,2.61,13.64
14.00675892829895,8.14,10.79,2.53,13.75
14.015621900558472,9.02,10.09,2.55,13.77
14.025763988494873,9.83,8.82,2.7,13.48
14.036635160446167,10.19,6.69,2.8,12.5
14.047060012817383,10.13,4.69,2.82,11.51
14.056693077087402,9.97,3.2,2.66,10.8
14.065591096878052,9.89,1.8,2.16,10.28
14.075554132461548,9.92,0.34,1.32,10.01
14.086698055267334,9.82,-1.0,0.51,9.88
14.09718918800354,9.56,-2.23,-0.23,9.81
14.10669493675232,9.17,-3.52,-0.84,9.85
14.115628004074097,8.76,-4.6,-1.34,9.98
14.125740051269531,8.47,-5.35,-1.86,10.18
14.13664984703064,8.3,-6.03,-2.27,10.5
14.146939039230347,8.02,-6.66,-2.56,10.73
14.15684700012207,7.41,-7.39,-2.64,10.79
14.165702104568481,6.62,-8.12,-2.43,10.75
14.175806999206543,5.93,-8.61,-1.97,10.63
14.186706066131592,5.41,-8.79,-1.44,10.42
14.197030067443848,4.98,-8.81,-0.99,10.16
14.206650018692017,4.67,-8.94,-0.76,10.11
14.21568512916565,4.61,-8.94,-0.72,10.08
14.225767850875854,4.86,-8.65,-0.66,9.94
14.23681902885437,5.09,-8.37,-0.57,9.81
14.247133016586304,5.21,-8.26,-0.61,9.78
14.256837129592896,5.32,-8.01,-0.65,9.63
14.265819072723389,5.33,-7.7,-0.71,9.39
14.275763034820557,5.16,-7.58,-0.75,9.2
14.286773920059204,4.99,-7.46,-0.82,9.01
14.297035932540894,4.82,-7.31,-1.01,8.81
14.30674695968628,4.75,-7.1,-1.23,8.63
14.315624952316284,4.61,-6.81,-1.41,8.34
14.32566499710083,4.49,-6.62,-1.61,8.15
14.336781978607178,4.43,-6.53,-1.85,8.1
14.347207069396973,4.27,-6.49,-1.98,8.01
14.35668396949768,4.04,-6.41,-2.03,7.84
14.365710020065308,3.77,-6.33,-2.03,7.64
14.37573504447937,3.48,-6.24,-1.96,7.4
14.38673186302185,3.21,-6.09,-1.9,7.14
14.396748065948486,3.07,-5.92,-1.94,6.94
14.40653395652771,3.3,-5.47,-2.04,6.7
14.41581106185913,3.71,-4.75,-2.12,6.38
14.425848960876465,4.03,-4.17,-2.2,6.2
14.43678903579712,4.28,-3.71,-2.2,6.07
14.44696307182312,4.23,-3.42,-2.12,5.83
14.456638097763062,3.99,-3.2,-1.84,5.43
14.46582818031311,3.95,-2.82,-1.41,5.05
14.475847959518433,4.3,-2.36,-0.96,4.99
14.486757040023804,4.8,-2.06,-0.47,5.24
14.497037172317505,5.49,-1.57,0.12,5.71
14.506514072418213,6.17,-0.77,0.74,6.26
14.515762090682983,6.47,-0.4,1.05,6.56
14.525809049606323,6.07,-0.59,1.07,6.19
14.536810159683228,5.31,-0.5,1.09,5.44
14.546703100204468,5.07,0.06,1.19,5.2
14.556400060653687,5.51,0.75,1.42,5.73
14.565747022628784,6.0,1.34,1.54,6.33
14.575778007507324,6.05,1.76,1.4,6.45
14.586634874343872,5.79,2.53,1.34,6.45
14.596576929092407,5.77,3.33,1.2,6.76
14.606300115585327,5.98,3.89,0.79,7.17
14.61592411994934,5.88,4.6,0.59,7.48
14.625895977020264,5.55,4.81,0.6,7.36
14.636815071105957,4.75,4.6,0.98,6.68
14.646986961364746,3.75,4.58,1.59,6.12
14.656431913375854,2.9,4.86,2.26,6.09
14.66589093208313,2.17,5.23,2.67,6.26
14.675796031951904,1.71,5.44,2.56,6.25
14.68674111366272,1.48,5.66,2.14,6.22
14.696860074996948,1.4,6.03,1.78,6.44
14.706278085708618,1.38,6.36,1.55,6.69
14.715780019760132,1.05,6.53,1.77,6.84
14.7259361743927,0.37,6.77,2.27,7.15
14.736937999725342,-0.44,7.09,2.85,7.65
14.747169017791748,-1.28,7.74,3.22,8.48
14.756278038024902,-1.94,8.48,3.48,9.36
14.765817880630493,-1.94,9.2,3.85,10.16
14.776017904281616,-1.86,9.56,3.95,10.5
14.78677487373352,-2.47,10.07,4.17,11.17
14.79667592048645,-2.84,10.59,4.43,11.82
14.806289911270142,-2.79,11.11,4.54,12.32
14.815725088119507,-3.04,11.06,4.42,12.29
14.825918912887573,-3.43,10.64,4.59,12.08
14.836834192276001,-3.44,10.66,4.61,12.11
14.847426176071167,-2.95,10.88,4.51,12.14
14.856251955032349,-2.04,11.42,3.98,12.26
14.865866899490356,-1.43,12.05,4.25,12.85
14.876157999038696,-1.11,12.36,4.99,13.37
14.886924028396606,-0.45,12.12,5.29,13.23
14.896864175796509,0.37,11.79,5.14,12.86
14.906255960464478,1.08,11.69,4.97,12.74
14.91597604751587,1.84,11.82,4.85,12.9
14.925922155380249,3.46,11.85,4.31,13.07
14.936765909194946,5.33,11.74,3.69,13.41
14.94688105583191,6.62,11.08,3.36,13.33
14.956360101699829,7.63,9.93,3.26,12.94
14.96600890159607,8.35,9.03,3.2,12.7
14.97602391242981,9.02,8.16,3.13,12.55
14.987046003341675,9.83,6.91,2.85,12.34
14.996677160263062,10.61,5.49,2.38,12.18
15.006473064422607,11.29,4.14,1.79,12.15
15.016142129898071,11.55,2.72,1.1,11.91
15.0260169506073,11.49,1.23,0.58,11.57
15.037161111831665,10.98,-0.46,0.02,10.98
15.047916173934937,10.13,-2.14,-0.44,10.36
15.056504011154175,9.1,-3.46,-0.72,9.76
15.066071033477783,8.42,-4.53,-0.93,9.6
15.075983047485352,7.7,-5.5,-1.28,9.54
15.086946964263916,6.97,-6.29,-1.91,9.58
15.096948862075806,6.43,-6.69,-2.39,9.58
15.106400966644287,5.86,-6.96,-2.6,9.46
15.115980863571167,5.85,-7.11,-2.56,9.55
15.12607216835022,6.08,-6.91,-2.41,9.51
15.136912107467651,6.49,-6.48,-2.38,9.47
15.147156000137329,6.85,-6.36,-2.41,9.65
15.156459093093872,7.08,-6.48,-2.19,9.84
15.165925979614258,7.09,-6.73,-1.76,9.93
15.176056146621704,6.92,-7.11,-1.28,10.0
15.187041997909546,6.51,-7.44,-0.84,9.92
15.196941137313843,6.03,-7.74,-0.64,9.83
15.206537961959839,5.6,-8.01,-0.53,9.78
15.216024160385132,5.36,-8.17,-0.6,9.78
15.226078033447266,5.23,-8.22,-0.87,9.78
15.236958980560303,5.07,-8.48,-1.3,9.96
15.24688196182251,5.04,-8.76,-1.69,10.24
15.256505012512207,5.02,-8.58,-1.98,10.13
15.26617693901062,4.9,-8.3,-2.32,9.91
15.276262044906616,4.77,-8.1,-2.68,9.77
15.293824911117554,4.42,-8.22,-2.95,9.78
15.297499895095825,4.35,-8.4,-3.0,9.92
15.306773900985718,4.52,-8.3,-2.78,9.85
15.316261053085327,4.4,-7.98,-2.49,9.44
15.326340913772583,4.12,-7.67,-2.18,8.97
15.344081163406372,3.93,-7.41,-2.02,8.62
15.347770929336548,4.1,-6.86,-1.93,8.22
15.356894969940186,4.77,-6.2,-2.06,8.08
15.366273164749146,5.26,-5.68,-2.35,8.09
15.37633490562439,5.72,-5.42,-2.31,8.21
15.394752979278564,6.02,-5.27,-1.92,8.22
15.39843201637268,6.04,-4.97,-1.27,7.92
15.406908988952637,5.75,-4.65,-0.52,7.41
15.416252851486206,5.55,-4.01,0.2,6.85
15.426357984542847,5.18,-3.15,0.59,6.09
15.444523096084595,5.15,-2.14,0.5,5.59
15.448292016983032,5.49,-0.88,0.29,5.56
15.457027196884155,5.9,-0.25,0.0,5.9
15.466313123703003,6.44,0.3,-0.33,6.45
15.47646689414978,6.25,1.09,-0.32,6.35
15.494359970092773,6.1,1.64,-0.41,6.32
15.497979879379272,5.72,2.18,-0.66,6.15
15.506838083267212,4.82,3.13,-1.23,5.87
15.516247034072876,4.85,4.22,-1.08,6.51
15.526396036148071,5.74,5.44,-0.4,7.91
15.54423999786377,5.98,5.72,-0.48,8.28
15.547828912734985,5.48,5.61,-0.5,7.85
15.556864976882935,4.67,5.44,0.44,7.18
15.566457033157349,4.16,5.46,1.72,7.07
15.576449155807495,3.51,5.67,2.59,7.15
15.59452509880066,3.07,6.08,2.88,7.39
15.598058938980103,3.17,6.6,3.16,7.97
15.606950998306274,3.1,7.52,3.24,8.75
15.616302967071533,2.3,7.54,2.89,8.39
15.626504182815552,1.67,8.07,2.69,8.66
15.6442391872406,1.42,9.78,3.14,10.36
15.647688150405884,0.55,9.66,3.15,10.17
15.657042026519775,-0.14,7.64,2.21,7.95
15.666439056396484,-0.69,7.94,2.5,8.35
15.676338911056519,-1.66,8.79,2.38,9.25
15.694761991500854,-2.27,9.67,1.62,10.06
15.698309183120728,-2.98,8.54,1.11,9.11
15.706949949264526,-3.26,7.64,0.67,8.33
15.716274976730347,-2.96,9.13,0.53,9.61
15.726444005966187,-3.82,8.46,0.57,9.29
15.744359970092773,-4.39,7.53,0.35,8.72
15.747803926467896,-4.98,7.27,0.3,8.81
15.756793022155762,-5.57,7.04,0.79,9.01
15.76636815071106,-5.44,7.02,1.33,8.98
15.77640986442566,-4.49,7.42,1.41,8.78
15.79363203048706,-3.31,8.14,1.34,8.88
15.797104120254517,-2.46,8.65,1.71,9.15
15.806902170181274,-2.2,8.88,2.57,9.5
15.816314935684204,-2.1,8.81,3.47,9.69
15.826398134231567,-1.79,8.61,3.98,9.65
15.843891859054565,-1.61,8.45,4.32,9.62
15.847292184829712,-1.27,8.38,4.44,9.56
15.856900930404663,-0.47,8.39,4.4,9.48
15.866370916366577,0.21,8.45,4.3,9.48
15.876368045806885,0.94,8.54,3.73,9.36
15.89440107345581,1.61,8.32,3.14,9.03
15.897989988327026,2.34,8.59,2.69,9.3
15.907019853591919,2.8,8.72,2.22,9.42
15.916347026824951,3.29,8.24,1.96,9.08
15.926625967025757,4.02,7.63,2.15,8.88
15.944337129592896,4.5,6.95,2.35,8.6
15.9478600025177,4.82,5.93,2.33,7.98
15.957197904586792,5.24,4.84,2.22,7.47
15.966499090194702,5.64,3.93,2.05,7.17
15.976482152938843,6.03,3.08,1.87,7.02
15.994701147079468,6.3,2.0,1.48,6.77
15.998356103897095,6.35,0.92,1.12,6.51
16.007317066192627,6.54,0.23,0.85,6.59
16.01636004447937,6.78,-0.47,0.5,6.81
16.0266010761261,6.85,-1.33,0.02,6.97
16.044578075408936,6.85,-2.24,-0.45,7.22
16.048138856887817,6.82,-3.24,-0.85,7.59
16.057312965393066,6.84,-4.1,-1.09,8.04
16.06647300720215,6.9,-4.76,-1.14,8.45
16.076597929000854,6.86,-5.37,-1.11,8.78
16.09480595588684,6.57,-5.97,-1.05,8.93
16.098302125930786,6.18,-6.57,-0.93,9.06
16.107178926467896,5.79,-7.11,-0.75,9.19
16.11647605895996,5.39,-7.59,-0.55,9.32
16.12664294242859,5.16,-7.81,-0.38,9.36
16.14492106437683,5.2,-7.92,-0.3,9.47
16.148411989212036,5.33,-7.94,-0.26,9.56
16.157111883163452,5.52,-7.84,-0.26,9.59
16.16646695137024,5.74,-7.73,-0.26,9.63
16.17664885520935,5.68,-7.68,-0.23,9.55
16.194711923599243,5.41,-7.57,-0.21,9.3
16.198235034942627,5.01,-7.41,-0.09,8.94
16.207142114639282,4.57,-7.3,-0.02,8.61
16.216572046279907,4.31,-7.14,0.07,8.34
16.226758003234863,4.18,-6.99,0.08,8.14
16.24469304084778,4.07,-6.97,-0.07,8.07
16.24818205833435,3.85,-7.07,-0.23,8.05
16.257156133651733,3.59,-7.1,-0.35,7.96
16.266641855239868,3.54,-6.91,-0.5,7.78
16.276638984680176,3.41,-6.8,-0.59,7.62
16.293899059295654,3.2,-6.83,-0.57,7.56
16.297250986099243,3.06,-6.87,-0.47,7.53
16.307137966156006,3.15,-6.79,-0.26,7.48
16.31644105911255,3.45,-6.38,0.11,7.25
16.326717138290405,4.01,-5.87,0.55,7.13
16.34395718574524,4.59,-5.64,0.77,7.31
16.347421884536743,4.33,-5.36,1.05,6.97
16.35712695121765,3.48,-4.95,1.71,6.28
16.366573095321655,2.99,-4.22,2.07,5.57
16.376580953598022,2.6,-3.45,2.41,4.94
16.3939950466156,2.17,-2.7,2.71,4.39
16.397397994995117,1.86,-1.98,2.57,3.73
16.40715193748474,2.21,-1.38,2.31,3.48
16.41647696495056,3.27,-1.12,1.78,3.88
16.42650818824768,4.57,-1.12,1.14,4.84
16.443806886672974,5.49,-1.16,0.42,5.62
16.44728112220764,5.59,-1.12,-0.39,5.71
16.457049131393433,5.37,-1.07,-1.04,5.57
16.466591119766235,5.79,-0.61,-1.03,5.91
16.47668719291687,6.65,0.85,-0.53,6.72
16.494063138961792,7.25,2.81,0.12,7.77
16.497440099716187,7.82,4.23,0.21,8.89
16.5072181224823,8.08,4.76,-0.2,9.37
16.51663613319397,7.35,4.78,-0.69,8.79
16.526714086532593,5.8,4.85,-1.0,7.62
16.544245958328247,3.83,5.37,-0.91,6.65
16.547728061676025,1.48,6.3,-0.4,6.48
16.557173013687134,-1.05,7.19,0.1,7.26
16.566744089126587,-3.0,7.96,0.19,8.5
16.57667899131775,-2.76,7.43,0.01,7.92
16.594678163528442,-0.13,6.25,0.23,6.25
16.598265886306763,0.52,5.66,1.07,5.78
16.607396841049194,0.19,6.73,2.38,7.14
16.616662979125977,-0.19,7.59,2.98,8.15
16.626868963241577,-0.99,7.39,3.0,8.03
16.645407915115356,-2.1,6.95,2.95,7.83
16.649028062820435,-3.17,7.05,3.36,8.42
16.657472848892212,-4.17,6.84,3.67,8.81
16.666768074035645,-4.95,6.25,3.72,8.79
16.6768319606781,-5.55,6.23,3.86,9.19
16.69514012336731,-6.22,5.72,3.78,9.25
16.69882297515869,-6.4,5.39,3.45,9.05
16.707494020462036,-6.36,5.54,2.93,8.92
16.71674418449402,-6.5,5.76,2.29,8.98
16.727018117904663,-6.12,6.15,1.87,8.87
16.74549889564514,-5.15,6.92,1.9,8.83
16.74923014640808,-4.29,7.6,1.95,8.94
16.757397890090942,-3.64,8.47,2.36,9.51
16.76681399345398,-3.13,9.37,3.12,10.35
16.776821851730347,-3.03,10.02,3.87,11.16
16.795125007629395,-3.09,10.27,4.19,11.51
16.79858708381653,-2.8,10.19,3.95,11.28
16.807318925857544,-1.65,9.63,2.85,10.17
16.816706895828247,-0.43,9.03,2.18,9.29
16.826926946640015,-0.31,8.67,2.44,9.01
16.844717025756836,0.14,10.16,2.04,10.36
16.84817099571228,0.38,9.51,1.62,9.65
16.857293844223022,1.13,7.9,1.96,8.21
16.86667799949646,1.69,8.12,1.75,8.47
16.876770973205566,1.65,8.0,1.16,8.25
16.89539408683777,2.65,7.51,0.99,8.02
16.8987238407135,3.74,6.6,1.11,7.66
16.907377004623413,4.13,5.95,1.48,7.39
16.916882038116455,4.31,5.13,1.92,6.96
16.926908016204834,4.36,3.84,2.05,6.16
16.94481587409973,4.14,2.71,2.18,5.4
16.94825005531311,4.25,1.64,2.23,5.07
16.95742702484131,4.57,0.64,1.89,4.98
16.966897010803223,4.9,-0.17,1.52,5.13
16.976922035217285,5.44,-1.07,1.22,5.67
16.994863033294678,6.06,-2.14,0.91,6.49
16.99830985069275,6.05,-3.31,0.72,6.93
17.00759506225586,5.64,-4.35,0.71,7.15
17.01676607131958,5.32,-5.35,0.78,7.58
17.026862859725952,5.14,-6.02,1.03,7.98
17.044631004333496,4.96,-6.59,1.34,8.35
17.048017024993896,4.78,-6.96,1.38,8.55
17.05754017829895,4.83,-6.78,1.52,8.46
17.06692099571228,5.23,-6.88,1.89,8.84
17.076900005340576,5.9,-6.54,2.48,9.15
17.09415102005005,6.98,-5.78,3.0,9.54
17.097508192062378,7.71,-5.69,3.36,10.15
17.10742497444153,7.78,-6.02,3.58,10.46
17.11687207221985,7.28,-6.06,3.59,10.12
17.126919984817505,6.24,-6.3,3.63,9.58
17.144170999526978,5.8,-6.51,3.55,9.41
17.147595167160034,5.5,-6.71,3.41,9.32
17.157446146011353,4.97,-6.92,2.79,8.96
17.16683793067932,4.89,-6.79,1.77,8.55
17.17712092399597,4.97,-6.52,0.93,8.25
17.194144010543823,4.76,-6.58,0.28,8.12
17.1975519657135,4.37,-6.64,-0.08,7.94
17.207513093948364,4.37,-6.49,0.04,7.82
17.216768980026245,3.97,-7.0,0.07,8.04
17.22698402404785,3.42,-7.26,-0.11,8.02
17.244421005249023,3.47,-7.01,0.13,7.82
17.247761011123657,3.84,-6.79,0.12,7.8
17.25756812095642,3.86,-6.64,-0.4,7.69
17.26703405380249,4.33,-6.14,-0.71,7.54
17.276996850967407,4.51,-5.96,-0.66,7.5
17.294432878494263,4.31,-5.95,-0.12,7.34
17.29781699180603,3.82,-5.97,0.44,7.1
17.30761694908142,3.33,-6.02,0.49,6.89
17.31696605682373,3.06,-5.53,0.47,6.33
17.327072858810425,3.2,-5.26,0.34,6.16
17.344741106033325,3.16,-4.86,0.59,5.82
17.34820818901062,3.75,-3.92,1.19,5.55
17.357616186141968,4.92,-2.9,1.5,5.9
17.367079973220825,5.49,-2.08,1.4,6.03
17.3770911693573,5.03,-1.24,1.34,5.35
17.394603967666626,3.92,-0.53,1.64,4.28
17.397977113723755,3.11,-0.06,2.19,3.8
17.407824993133545,2.82,0.25,2.33,3.66
17.417041063308716,3.22,0.69,2.41,4.08
17.427226066589355,3.93,2.2,2.6,5.2
17.444863080978394,3.79,3.52,2.16,5.6
17.4484121799469,3.44,4.63,1.58,5.98
17.45775294303894,3.1,5.54,1.56,6.53
17.46706986427307,3.04,6.33,1.97,7.29
17.477113962173462,2.79,7.04,2.61,8.0
17.494714975357056,2.34,7.68,3.46,8.74
17.498228073120117,2.38,8.66,4.4,10.0
17.50778603553772,2.31,9.03,4.5,10.35
17.51706600189209,1.26,9.37,4.11,10.3
17.527209043502808,0.34,9.64,3.66,10.31
17.54475998878479,0.05,11.26,3.08,11.67
17.548311948776245,-0.82,10.14,1.92,10.35
17.5578191280365,-2.67,9.17,2.06,9.77
17.56712508201599,-4.3,8.97,2.43,10.23
17.57728409767151,-4.63,7.94,1.91,9.38
17.59465718269348,-4.37,8.51,1.73,9.72
17.598132848739624,-4.54,8.22,1.23,9.47
17.607725858688354,-4.69,8.05,0.47,9.32
17.617197036743164,-5.2,7.69,-0.37,9.29
17.62711000442505,-5.82,7.08,-0.91,9.21
17.644657850265503,-6.17,6.7,-0.82,9.14
17.648091077804565,-6.2,6.38,-0.45,8.9
17.6576931476593,-6.34,6.46,-0.02,9.05
17.66712784767151,-5.51,6.89,0.07,8.82
17.677118062973022,-4.16,7.76,0.27,8.8
17.69477391242981,-3.29,8.56,0.77,9.2
17.698210954666138,-2.62,9.18,1.54,9.66
17.707935094833374,-2.17,9.62,2.32,10.13
17.717123985290527,-1.85,10.04,2.72,10.56
17.727296113967896,-1.6,9.87,3.29,10.52
17.745024919509888,-0.98,10.3,3.83,11.03
17.748496055603027,-0.03,10.59,3.59,11.18
17.757905960083008,0.49,10.23,4.18,11.06
17.767234086990356,1.12,9.93,4.21,10.84
17.777247190475464,1.85,9.36,3.78,10.26
17.794785976409912,2.54,8.59,3.59,9.65
17.798367977142334,3.36,7.96,3.25,9.23
17.807894945144653,3.97,7.07,3.0,8.64
17.817236185073853,4.41,6.08,3.11,8.12
17.827388048171997,5.05,5.35,3.12,7.99
17.844688177108765,5.52,4.54,2.71,7.64
17.848185062408447,6.06,3.9,2.36,7.58
17.85780906677246,6.95,3.13,2.05,7.89
17.86719012260437,7.39,2.29,1.6,7.9
17.877168893814087,7.95,1.28,1.07,8.12
17.89472794532776,8.33,0.19,0.73,8.36
17.898176908493042,8.04,-1.21,0.48,8.14
17.90786910057068,7.64,-2.55,0.31,8.06
17.917368173599243,7.17,-3.63,0.06,8.03
17.92746090888977,6.72,-4.5,-0.04,8.08
17.944574117660522,6.69,-4.91,0.05,8.29
17.948260068893433,6.97,-5.25,0.68,8.75
17.957901000976562,7.06,-5.41,1.68,9.05
17.967350959777832,6.84,-5.7,2.5,9.24
17.97742009162903,6.46,-6.24,2.6,9.35
17.994199991226196,6.15,-6.57,2.51,9.34
17.998029947280884,5.53,-7.07,2.8,9.4
18.00804591178894,4.95,-7.58,2.82,9.48
18.017228841781616,4.56,-7.78,2.52,9.36
18.02747416496277,4.71,-7.77,1.99,9.3
18.044429063796997,4.66,-7.67,1.7,9.13
18.048292875289917,4.18,-7.75,1.33,8.9
18.058037042617798,4.06,-7.78,0.83,8.81
18.067322969436646,4.03,-7.68,0.37,8.68
18.077404022216797,4.3,-7.52,-0.26,8.66
18.09411096572876,4.31,-7.34,-0.6,8.53
18.098095178604126,4.07,-7.4,-0.65,8.47
18.107950925827026,3.73,-7.4,-0.42,8.29
18.11717915534973,3.54,-7.4,0.0,8.2
18.127495050430298,3.37,-7.45,0.18,8.17
18.144171953201294,3.19,-7.31,0.27,7.98
18.14825201034546,3.44,-7.03,0.37,7.83
18.157986879348755,3.62,-6.86,0.6,7.77
18.16731286048889,3.87,-6.54,0.72,7.63
18.1773841381073,3.95,-6.37,0.89,7.54
18.193938970565796,3.64,-6.18,0.77,7.21
18.198177099227905,3.19,-6.0,0.6,6.82
18.20797300338745,2.86,-5.63,0.46,6.33
18.21738886833191,2.8,-5.21,0.5,5.93
18.227472066879272,2.67,-4.93,0.92,5.68
18.24389910697937,3.11,-4.44,0.9,5.49
18.24823498725891,3.27,-4.03,1.13,5.31
18.257951974868774,3.3,-3.83,1.7,5.33
18.267483949661255,3.56,-3.63,1.79,5.39
18.27756094932556,3.81,-3.37,1.52,5.3
18.293787002563477,3.98,-2.92,1.16,5.07
18.298024892807007,4.18,-2.19,1.16,4.85
18.308016061782837,4.11,-1.87,0.93,4.61
18.31729817390442,3.62,-1.71,0.51,4.03
18.327476024627686,3.23,-0.93,1.03,3.51
18.343623876571655,3.49,-0.35,1.05,3.66
18.348257064819336,4.14,-0.03,0.65,4.19
18.358031034469604,4.23,1.0,0.04,4.34
18.367395162582397,3.39,1.97,-0.35,3.93
18.377444982528687,3.0,2.38,-0.3,3.84
18.393611192703247,3.13,2.94,0.26,4.3
18.398107051849365,3.26,3.83,0.88,5.1
18.408005952835083,3.42,4.7,1.18,5.93
18.417412996292114,3.77,5.36,1.31,6.68
18.427554845809937,3.81,5.83,1.09,7.04
18.443380117416382,3.15,6.36,0.68,7.12
18.44834589958191,2.89,6.44,0.93,7.11
18.45810294151306,2.85,6.62,1.43,7.34
18.467499017715454,2.05,7.04,1.98,7.59
18.477494955062866,0.99,6.84,2.47,7.33
18.493387937545776,0.04,6.61,2.77,7.16
18.49826407432556,-0.82,6.4,2.98,7.1
18.508075952529907,-1.53,6.6,3.37,7.56
18.51742911338806,-2.08,6.6,3.93,7.95
18.527554035186768,-2.62,7.03,4.29,8.64
18.543471097946167,-3.35,6.57,3.89,8.33
18.548380136489868,-4.09,6.17,3.1,8.02
18.55827307701111,-4.58,7.24,1.91,8.77
18.567609071731567,-4.53,6.97,0.48,8.32
18.577594995498657,-4.98,7.24,-0.15,8.78
18.594027996063232,-5.21,7.53,-0.17,9.15
18.598267078399658,-5.16,7.87,-0.29,9.41
18.60826086997986,-5.46,8.1,-0.37,9.77
18.617511987686157,-5.64,8.1,-0.09,9.87
18.627649068832397,-5.27,8.64,0.2,10.12
18.643651008605957,-4.53,9.07,0.51,10.15
18.648530960083008,-4.02,9.39,1.25,10.29
18.658143043518066,-3.43,9.81,1.61,10.51
18.66762089729309,-3.14,10.14,1.92,10.78
18.67766308784485,-2.74,9.98,2.32,10.6
18.69368815422058,-2.3,9.69,2.09,10.17
18.698382139205933,-1.5,10.47,1.14,10.63
18.708202123641968,-0.78,10.11,0.05,10.14
18.717679023742676,-0.33,9.59,0.38,9.6
18.727701902389526,-0.09,9.42,0.18,9.42
18.743601083755493,0.6,8.83,0.24,8.85
18.748500108718872,1.26,8.39,0.91,8.53
18.758291006088257,2.09,8.34,1.37,8.7
18.76771306991577,3.15,8.06,2.14,8.91
18.77775001525879,3.87,7.89,3.93,9.62
18.793837070465088,5.02,7.95,5.8,11.04
18.798382997512817,6.5,7.27,6.69,11.82
18.808207988739014,7.09,6.65,7.08,12.02
18.817604064941406,7.76,5.17,6.95,11.62
18.827651977539062,8.11,3.94,5.84,10.74
18.843642950057983,8.49,2.77,4.65,10.06
18.84846305847168,8.6,1.41,3.59,9.42
18.858421087265015,8.57,0.13,2.53,8.93
18.868008852005005,8.48,-0.99,1.24,8.62
18.87771201133728,8.24,-2.01,0.11,8.48
18.89425301551819,8.09,-3.17,-0.6,8.7
18.89839005470276,7.93,-4.1,-0.98,8.98
18.908479928970337,7.75,-4.92,-0.92,9.22
18.917988061904907,7.2,-5.87,-0.81,9.32
18.927829027175903,6.51,-6.69,-0.72,9.36
18.944377183914185,6.08,-7.25,-0.43,9.47
18.94863200187683,6.0,-7.37,0.08,9.5
18.9584858417511,5.93,-7.46,0.43,9.53
18.968093156814575,5.61,-7.68,0.61,9.53
18.97778296470642,5.33,-8.09,0.71,9.71
18.99406409263611,4.96,-8.11,0.76,9.53
18.998537063598633,4.84,-8.19,0.91,9.55
19.008483171463013,4.8,-8.15,0.88,9.49
19.018102884292603,4.95,-7.84,0.66,9.29
19.027937173843384,4.99,-7.7,0.32,9.18
19.044481992721558,4.76,-7.89,0.14,9.21
19.0487060546875,4.43,-7.83,0.04,8.99
19.05850100517273,4.37,-7.84,-0.19,8.97
19.068240880966187,4.39,-7.65,-0.11,8.82
19.077911138534546,4.35,-7.7,-0.01,8.84
19.09436011314392,4.11,-7.56,0.01,8.6
19.098631143569946,3.84,-7.6,0.12,8.51
19.108537912368774,3.67,-7.53,0.27,8.38
19.118250131607056,3.62,-7.28,0.41,8.14
19.127926111221313,3.72,-7.01,0.36,7.94
19.144721031188965,3.87,-6.69,0.52,7.74
19.148686170578003,4.06,-6.23,0.72,7.47
19.1585910320282,4.28,-5.77,0.8,7.22
19.168062925338745,4.42,-5.42,1.0,7.06
19.177811861038208,4.42,-4.97,1.09,6.73
19.19435405731201,4.44,-4.63,0.92,6.48
19.198489904403687,4.52,-4.26,0.95,6.28
19.2084858417511,4.54,-3.87,1.09,6.06
19.21838688850403,4.64,-3.62,1.17,6.0
19.227834939956665,4.84,-3.15,1.36,5.93
19.24426007270813,5.2,-2.64,1.63,6.05
19.248750925064087,5.37,-2.11,1.66,6.0
19.258464097976685,5.36,-1.66,1.52,5.81
19.26822304725647,5.26,-1.25,1.48,5.6
19.277902841567993,5.09,-0.83,1.71,5.43
19.2940890789032,4.91,-0.2,1.86,5.25
19.298721075057983,5.01,0.51,1.68,5.3
19.30853009223938,5.0,1.25,1.28,5.31
19.31840491294861,4.82,2.05,0.71,5.28
19.32791495323181,4.81,2.77,0.14,5.55
19.344019174575806,4.73,3.4,-0.03,5.82
19.348687887191772,4.58,4.07,0.18,6.12
19.358530044555664,4.68,5.02,0.22,6.86
19.368422985076904,4.63,6.0,0.44,7.59
19.377953052520752,4.29,6.21,0.5,7.56
19.39343810081482,3.76,6.54,0.59,7.56
19.39859104156494,3.22,6.88,1.34,7.71
19.40833806991577,2.43,7.07,2.62,7.92
19.418081998825073,1.44,7.09,3.66,8.1
19.427937030792236,0.54,7.06,4.18,8.22
19.443485975265503,-0.08,7.15,4.18,8.28
19.44872784614563,-0.75,7.32,3.89,8.32
19.458464860916138,-1.43,7.38,3.18,8.16
19.468276977539062,-1.94,7.52,2.44,8.14
19.478008031845093,-2.61,7.54,2.22,8.28
19.49313497543335,-3.52,7.2,2.23,8.31
19.498754024505615,-4.69,6.93,2.29,8.67
19.508669137954712,-5.67,6.77,2.29,9.12
19.518266916275024,-6.15,7.06,2.17,9.61
19.528156042099,-6.24,7.29,1.8,9.76
19.543724060058594,-6.42,7.45,1.51,9.94
19.548814058303833,-6.55,7.57,1.14,10.07
19.55855703353882,-6.67,7.56,0.83,10.11
19.568253993988037,-6.76,7.67,0.63,10.24
19.57814598083496,-6.64,7.9,0.52,10.33
19.593472003936768,-5.98,8.43,0.59,10.35
19.598748922348022,-5.05,8.86,1.04,10.25
19.608641862869263,-4.45,9.19,1.66,10.34
19.61829686164856,-4.17,9.14,2.26,10.29
19.62808394432068,-3.93,8.93,3.01,10.21
19.643144845962524,-3.54,8.81,3.64,10.16
19.64884901046753,-3.06,8.78,3.83,10.05
19.65861701965332,-2.58,8.8,3.82,9.93
19.668297052383423,-1.96,8.89,3.44,9.73
19.678044080734253,-0.96,8.91,2.65,9.34
19.692914962768555,-0.01,8.91,1.72,9.07
19.698724031448364,0.82,8.88,0.89,8.96
19.70881485939026,1.94,8.79,0.75,9.03
19.718194007873535,3.06,8.52,0.96,9.1
19.72819685935974,3.77,7.94,1.18,8.86
19.74351191520691,4.32,7.16,1.24,8.45
19.74907898902893,4.98,6.34,1.41,8.18
19.758864164352417,5.6,5.74,1.31,8.12
19.76844096183777,6.53,5.09,0.98,8.33
19.778169870376587,7.32,4.33,0.79,8.54
19.793869018554688,7.64,3.47,0.91,8.44
19.798986196517944,7.96,2.54,0.97,8.41
19.808861017227173,7.97,1.27,1.09,8.14
19.818286180496216,7.71,-0.03,1.33,7.82
19.828251123428345,7.27,-1.33,1.41,7.52
19.843973875045776,6.69,-2.43,1.37,7.24
19.848870038986206,6.4,-3.25,1.28,7.29
19.858702898025513,6.34,-3.87,1.04,7.5
19.86820387840271,6.37,-4.56,0.55,7.85
19.878154039382935,6.55,-4.91,0.21,8.18
19.893458127975464,6.68,-5.33,-0.03,8.54
19.898813009262085,6.53,-5.8,-0.08,8.73
19.90867590904236,6.33,-6.26,0.01,8.9
19.918241024017334,5.87,-6.72,0.18,8.92
19.92821717262268,5.44,-7.27,0.55,9.09
19.94338297843933,5.08,-7.79,0.69,9.32
19.94893503189087,4.78,-7.85,0.78,9.22
19.95863103866577,4.76,-7.97,0.56,9.3
19.968191862106323,4.71,-8.06,0.09,9.33
19.978140115737915,4.64,-8.12,-0.13,9.35
19.992541074752808,4.6,-8.02,-0.15,9.24
19.998797178268433,4.49,-8.0,-0.23,9.17
20.008774042129517,4.39,-7.91,-0.39,9.05
20.01808500289917,4.3,-7.7,-0.7,8.84
20.028248071670532,4.23,-7.61,-0.93,8.75
20.0429630279541,4.15,-7.5,-0.96,8.62
20.049007177352905,4.06,-7.37,-0.82,8.45
20.058758020401,3.96,-7.18,-0.53,8.21
20.068204164505005,3.82,-6.99,-0.47,7.97
20.078328847885132,3.8,-6.76,-0.51,7.77
20.09293293952942,3.94,-6.49,-0.69,7.62
20.09897494316101,4.04,-6.23,-0.72,7.46
20.10879397392273,3.98,-5.94,-0.54,7.17
20.118144035339355,3.85,-5.63,-0.3,6.82
20.12826704978943,3.83,-5.39,-0.09,6.61
20.142786026000977,3.77,-5.06,0.03,6.31
20.149023056030273,3.9,-4.77,0.01,6.16
20.15885901451111,4.31,-4.55,0.04,6.26
20.16809105873108,4.52,-4.34,0.3,6.27
20.178205966949463,4.33,-4.11,0.38,5.98
20.19257092475891,4.18,-3.96,0.45,5.77
20.198961973190308,4.18,-3.63,0.56,5.56
20.208880186080933,4.48,-2.95,0.65,5.4
20.218214988708496,4.81,-2.19,0.5,5.3
20.228322982788086,5.12,-1.61,0.19,5.37
20.24269199371338,5.5,-0.82,0.09,5.56
20.24910807609558,5.59,0.12,0.25,5.59
20.258990049362183,5.52,0.78,0.35,5.58
20.268243074417114,5.59,1.33,0.62,5.77
20.278538942337036,5.56,1.97,0.92,5.97
20.292534112930298,5.43,2.54,1.18,6.1
20.29916000366211,5.2,3.11,1.54,6.25
20.308876037597656,5.18,3.79,1.97,6.71
20.318268060684204,5.11,4.61,2.78,7.42
20.328388929367065,4.85,5.45,3.77,8.21
20.34278702735901,4.62,6.27,3.89,8.7
20.349151849746704,4.17,6.92,3.38,8.75
20.35889196395874,3.35,7.39,2.63,8.52
20.368290185928345,2.4,7.48,2.05,8.11
20.3783860206604,1.72,7.44,1.41,7.76
20.392526865005493,0.87,7.99,1.09,8.11
20.3989360332489,0.0,7.49,0.7,7.52
20.408921003341675,-0.71,7.54,0.45,7.58
20.418276071548462,-1.56,7.6,0.25,7.76
20.428356885910034,-2.17,7.59,0.11,7.89
20.442748069763184,-2.91,7.2,0.31,7.77
20.44915795326233,-3.76,6.81,1.05,7.84
20.459004163742065,-4.37,6.73,1.81,8.22
20.468260049819946,-4.9,6.84,2.15,8.68
20.478381872177124,-5.11,7.14,2.37,9.09
20.492598056793213,-5.26,7.59,2.62,9.59
20.499046087265015,-5.31,8.28,2.64,10.18
20.50896406173706,-5.24,8.88,2.42,10.59
20.518319845199585,-5.46,9.14,2.06,10.84
20.52842903137207,-5.55,9.38,1.9,11.06
20.542778968811035,-5.49,9.83,1.87,11.41
20.549279928207397,-5.43,10.23,2.12,11.77
20.55891704559326,-5.35,10.84,2.63,12.37
20.568372011184692,-5.0,11.73,3.11,13.12
20.578431844711304,-4.15,12.89,3.44,13.97
20.59322714805603,-3.09,13.87,3.55,14.64
20.599446058273315,-2.1,14.5,4.03,15.19
20.60896897315979,-1.26,14.82,4.71,15.6
20.61856484413147,-0.34,14.94,5.36,15.87
20.628955125808716,0.84,14.87,5.74,15.96
20.642669916152954,2.25,14.88,6.01,16.2
20.65006399154663,3.84,13.99,6.14,15.75
20.65897488594055,5.25,12.87,6.23,15.23
20.668573141098022,6.52,11.36,6.07,14.43
20.678480863571167,7.73,9.68,5.84,13.69
20.6925790309906,8.86,7.78,5.64,13.07
20.699136972427368,9.71,5.72,5.41,12.5
20.70906090736389,10.23,3.51,4.97,11.9
20.718616008758545,10.45,1.47,4.27,11.38
20.72858691215515,10.51,-0.47,3.54,11.1
20.742683172225952,10.75,-2.16,2.8,11.31
20.749348878860474,10.7,-3.52,2.03,11.44
20.759194135665894,10.42,-4.61,1.15,11.45
20.768527030944824,10.37,-5.77,0.26,11.87
20.778576135635376,10.15,-6.17,-0.41,11.88
20.792963981628418,10.56,-6.44,-0.29,12.37
20.799345016479492,10.8,-6.96,0.06,12.84
20.809056043624878,10.48,-7.39,0.79,12.84
20.818689107894897,10.02,-8.34,1.25,13.09
20.828645944595337,8.97,-9.3,1.42,12.99
20.843039989471436,7.91,-9.78,1.79,12.7
20.84939694404602,7.24,-10.35,1.83,12.76
20.859362840652466,6.86,-10.43,1.47,12.57
20.868546962738037,6.44,-10.53,1.05,12.38
20.87864089012146,6.06,-10.86,0.77,12.46
20.893407106399536,5.29,-10.8,0.28,12.02
20.899368047714233,5.08,-10.52,0.03,11.68
20.909252882003784,5.29,-10.15,-0.53,11.45
20.91859793663025,5.23,-9.93,-1.12,11.27
20.928797006607056,4.78,-9.8,-1.52,11.0
20.944194078445435,4.19,-9.68,-1.83,10.7
20.949401140213013,3.91,-9.51,-1.76,10.43
20.95933508872986,3.93,-9.13,-1.43,10.04
20.968677043914795,4.09,-8.68,-1.26,9.67
20.978646993637085,4.23,-8.23,-1.26,9.33
20.9936580657959,4.32,-7.81,-1.01,8.98
20.999441862106323,4.4,-7.39,-0.65,8.62
21.009207010269165,4.54,-7.0,-0.32,8.34
21.018755197525024,4.4,-6.77,-0.01,8.07
21.028641939163208,4.26,-6.52,0.26,7.79
21.043372869491577,4.17,-6.2,0.25,7.47
21.05006504058838,4.24,-5.88,0.08,7.24
21.05936598777771,4.54,-5.44,-0.24,7.08
21.068696975708008,4.76,-5.01,-0.43,6.92
21.07875084877014,4.71,-4.79,-0.64,6.74
21.092890977859497,4.53,-4.7,-0.72,6.56
21.09937310218811,4.49,-4.43,-0.6,6.33
21.10916805267334,4.68,-4.09,-0.62,6.24
21.11865496635437,5.19,-3.59,-0.6,6.33
21.128957986831665,5.78,-3.07,-0.24,6.54
21.14347505569458,6.31,-2.4,0.28,6.75
21.149888038635254,6.67,-1.72,1.0,6.96
21.159247159957886,6.84,-1.13,1.98,7.2
21.168662071228027,7.08,-0.41,2.93,7.67
21.17876410484314,7.6,0.83,3.5,8.4
21.19243597984314,8.06,2.14,3.67,9.11
21.199697971343994,8.13,3.43,3.77,9.59
21.209259033203125,7.73,4.61,4.15,9.91
21.218619108200073,7.18,5.79,4.95,10.46
21.2286479473114,6.67,6.82,5.25,10.88
21.242273092269897,6.2,7.56,5.09,11.02
21.24980902671814,5.58,8.06,4.53,10.79
21.259219884872437,4.78,8.23,3.79,10.24
21.268718004226685,3.73,8.38,3.38,9.77
21.278846979141235,2.65,8.27,3.16,9.24
21.292662858963013,1.56,8.06,2.87,8.69
21.299872159957886,0.5,7.81,2.54,8.22
21.30951714515686,-0.25,7.75,2.26,8.07
21.318742036819458,-0.91,7.84,1.97,8.13
21.328819036483765,-1.46,7.85,1.84,8.19
21.342697858810425,-2.14,7.63,2.1,8.19
21.349857091903687,-3.1,7.58,2.82,8.66
21.359296083450317,-3.63,7.9,3.41,9.33
21.368780851364136,-3.9,8.14,3.35,9.62
21.3788959980011,-4.46,8.45,2.96,10.0
21.392726182937622,-5.18,8.84,2.32,10.5
21.399857997894287,-5.48,9.4,1.6,10.99
21.409378051757812,-5.14,10.04,1.02,11.32
21.418735027313232,-4.77,10.63,0.91,11.68
21.428869009017944,-4.53,11.14,1.08,12.07
21.442936182022095,-4.69,11.13,1.29,12.14
21.45006012916565,-4.8,11.05,1.92,12.19
21.459509134292603,-4.49,11.14,2.82,12.33
21.468783140182495,-3.61,11.2,3.36,12.23
21.478877067565918,-2.61,11.25,3.62,12.1
21.492921113967896,-1.61,11.19,3.56,11.85
21.500030040740967,-1.05,10.74,3.36,11.3
21.509440183639526,-0.95,9.87,3.09,10.38
21.518800020217896,-0.85,9.13,2.81,9.59
21.528882026672363,-0.29,8.69,2.65,9.08
21.54253888130188,0.51,8.22,2.01,8.47
21.550116062164307,1.32,7.79,1.61,8.06
21.559375047683716,2.01,7.29,1.66,7.74
21.56890606880188,2.81,6.75,1.81,7.53
21.57880997657776,3.62,6.22,1.94,7.45
21.592243909835815,4.26,5.58,2.32,7.39
21.599958181381226,4.64,4.73,2.63,7.12
21.6094229221344,5.24,3.9,2.71,7.07
21.618839025497437,6.17,3.43,2.49,7.48
21.628931999206543,6.65,2.86,1.95,7.49
21.641937017440796,6.87,1.99,1.86,7.39
21.650040864944458,7.03,1.17,1.87,7.36
21.65946888923645,7.28,0.27,1.85,7.51
21.66889500617981,7.29,-0.58,1.8,7.53
21.67893385887146,7.36,-1.5,1.6,7.67
21.69159197807312,7.36,-2.34,1.36,7.84
21.69990301132202,7.41,-3.15,1.23,8.14
21.70945906639099,7.36,-4.03,0.88,8.43
21.71887993812561,7.23,-4.79,0.68,8.69
21.728919982910156,6.81,-5.62,0.73,8.85
21.741408109664917,6.25,-6.48,0.94,9.05
21.750086069107056,5.81,-7.04,1.11,9.19
21.75943112373352,5.73,-7.3,0.99,9.33
21.7688250541687,5.75,-7.39,0.65,9.38
21.778913021087646,5.62,-7.59,0.11,9.44
21.791259050369263,5.3,-7.96,-0.35,9.56
21.79992985725403,4.88,-8.24,-0.54,9.59
21.809559106826782,4.64,-8.35,-0.53,9.56
21.81876492500305,4.64,-8.32,-0.49,9.53
21.829030990600586,4.73,-8.18,-0.48,9.46
21.84139609336853,4.71,-8.08,-0.45,9.36
21.85009002685547,4.55,-8.01,-0.59,9.23
21.859520196914673,4.35,-7.98,-0.84,9.12
21.868911027908325,4.17,-7.97,-1.08,9.05
21.878972053527832,4.03,-7.94,-1.12,8.97
21.891299962997437,3.92,-7.85,-1.06,8.83
21.900068044662476,3.78,-7.88,-1.03,8.8
21.90950608253479,3.55,-7.96,-0.97,8.76
21.91888689994812,3.45,-8.02,-0.98,8.78
21.929036855697632,3.38,-8.02,-0.91,8.75
21.94192910194397,3.4,-7.92,-0.88,8.66
21.950212001800537,3.57,-7.73,-0.84,8.55
21.959595918655396,3.77,-7.51,-0.66,8.42
21.968984842300415,4.08,-7.28,-0.42,8.35
21.9791100025177,4.7,-6.73,-0.07,8.2
21.991792917251587,5.29,-6.18,0.33,8.14
22.000177145004272,5.54,-5.9,0.8,8.13
22.009572982788086,5.61,-5.58,1.08,7.98
22.01909303665161,5.54,-5.29,1.38,7.78
22.029085874557495,5.45,-5.03,1.91,7.65
22.041465997695923,5.55,-4.7,2.21,7.6
22.050263166427612,6.09,-3.96,2.19,7.58
22.05970597267151,7.27,-2.41,1.89,7.88
22.069113969802856,8.06,-0.98,1.43,8.24
22.07921004295349,8.15,0.15,1.02,8.21
22.09119701385498,7.78,1.04,0.95,7.9
22.10011315345764,7.44,1.96,0.97,7.75
22.10953116416931,7.35,3.15,0.95,8.05
22.118980169296265,7.27,4.14,0.96,8.42
22.129185914993286,6.94,4.95,0.92,8.57
22.140804052352905,6.62,5.73,0.82,8.79
22.150269031524658,6.46,6.79,0.69,9.39
22.159693956375122,6.3,7.61,0.79,9.91
22.168883085250854,6.01,8.4,0.79,10.35
22.17918610572815,5.02,8.84,1.02,10.21
22.191252946853638,3.32,8.76,1.06,9.42
22.199923038482666,1.77,8.3,0.91,8.53
22.20948100090027,0.96,8.3,1.15,8.43
22.218950033187866,0.75,9.04,1.4,9.17
22.229015111923218,0.59,9.21,1.32,9.32
22.240678071975708,-0.32,8.77,2.07,9.01
22.250306844711304,-1.74,8.79,3.15,9.49
22.25973606109619,-3.07,8.12,4.02,9.56
22.269086122512817,-4.37,7.73,4.95,10.16
22.279057025909424,-5.48,7.3,5.34,10.57
22.290900945663452,-6.28,7.13,5.24,10.85
22.300193071365356,-6.83,7.01,4.99,10.98
22.30975103378296,-6.72,7.24,4.46,10.83
22.319132089614868,-6.13,7.88,3.58,10.6
22.329468965530396,-5.97,8.42,2.83,10.7
22.341076135635376,-6.06,8.79,2.36,10.93
22.350302934646606,-5.74,9.34,2.27,11.19
22.359700918197632,-4.93,10.13,2.58,11.55
22.36915898323059,-4.01,10.87,2.98,11.96
22.379058122634888,-3.23,11.57,3.36,12.47
22.39098811149597,-2.68,11.98,3.69,12.81
22.400112867355347,-2.16,12.22,4.34,13.14
22.409698009490967,-1.52,12.36,5.14,13.47
22.419047117233276,-0.77,12.52,6.04,13.92
22.429136991500854,-0.13,12.22,6.28,13.73
22.44143319129944,0.48,11.67,5.8,13.04
22.450427055358887,1.15,10.99,5.08,12.16
22.4597110748291,1.89,10.22,4.22,11.21
22.46925711631775,2.68,9.63,3.39,10.55
22.47933793067932,3.26,8.9,2.82,9.88
22.491679906845093,3.54,8.13,2.54,9.22
22.50020718574524,3.87,7.33,2.15,8.56
22.509909868240356,4.15,6.45,1.82,7.88
22.51921010017395,4.45,5.69,1.41,7.35
22.52939486503601,5.39,5.12,1.09,7.51
22.542243003845215,6.69,4.62,1.15,8.21
22.550318002700806,7.6,4.01,1.3,8.69
22.559882879257202,8.11,2.98,1.48,8.76
22.569210052490234,8.42,1.98,2.03,8.88
22.57931900024414,8.61,0.84,2.26,8.94
22.59179401397705,8.74,-0.38,2.12,9.0
22.600260972976685,8.86,-1.62,1.79,9.18
22.609988927841187,9.08,-2.94,1.26,9.62
22.619258165359497,9.05,-3.99,0.56,9.9
22.62944197654724,8.76,-5.06,0.22,10.11
22.642174005508423,8.33,-5.97,0.03,10.24
22.65022587776184,8.28,-6.55,-0.25,10.56
22.659947156906128,8.35,-6.77,-0.47,10.75
22.669471979141235,8.21,-7.14,-0.52,10.89
22.679424047470093,7.83,-7.55,-0.44,10.88
22.692200899124146,7.39,-7.9,-0.35,10.82
22.700238943099976,7.04,-8.29,-0.14,10.87
22.710016012191772,6.85,-8.49,0.23,10.91
22.719279050827026,6.86,-8.47,0.35,10.9
22.729443073272705,6.72,-8.54,0.45,10.87
22.742156982421875,6.6,-8.55,0.6,10.81
22.75032901763916,6.21,-8.62,0.57,10.63
22.759959936141968,5.74,-8.78,0.46,10.49
22.769389867782593,5.39,-8.8,0.33,10.32
22.77954888343811,4.96,-8.76,0.0,10.06
22.79187512397766,4.66,-8.47,-0.09,9.66
22.800330877304077,4.48,-8.39,-0.3,9.51
22.80991005897522,4.24,-8.25,-0.6,9.29
22.819402933120728,3.93,-8.05,-0.63,8.98
22.829463005065918,3.8,-7.74,-0.84,8.66
22.841421842575073,3.64,-7.61,-1.21,8.52
22.85041117668152,3.66,-7.34,-1.3,8.3
22.860102891921997,3.85,-6.97,-0.94,8.01
22.869433164596558,3.85,-6.75,-0.55,7.79
22.879582166671753,3.51,-6.7,-0.16,7.56
22.891957998275757,3.15,-6.69,0.16,7.39
22.900424003601074,2.91,-6.57,0.25,7.18
22.910034894943237,3.03,-6.15,0.28,6.86
22.919419050216675,3.51,-5.58,0.36,6.6
22.92949104309082,4.19,-4.96,0.56,6.51
22.941627025604248,4.48,-4.33,1.19,6.34
22.950303077697754,4.57,-3.84,1.7,6.2
22.959943056106567,4.47,-3.28,1.85,5.84
22.969488859176636,4.2,-2.82,1.97,5.42
22.979625940322876,4.25,-2.09,2.14,5.19
22.99225902557373,4.62,-0.98,2.06,5.15
23.000246047973633,4.59,-0.3,1.77,4.92
23.01000189781189,4.77,0.48,1.54,5.03
23.019407033920288,5.9,2.02,1.55,6.42
23.02959418296814,6.82,3.36,1.14,7.68
23.041468858718872,6.88,4.2,0.74,8.09
23.05036497116089,6.0,4.78,0.83,7.71
23.06000304222107,5.09,5.14,1.02,7.3
23.06955099105835,5.07,5.78,1.67,7.86
23.079575061798096,5.23,6.5,2.36,8.67
23.09169101715088,5.66,7.44,2.85,9.77
23.100210905075073,5.73,8.89,2.97,10.98
23.109963178634644,6.07,10.72,2.4,12.55
23.119423151016235,5.0,10.29,1.65,11.55
23.12969207763672,3.07,9.91,1.73,10.51
23.141627073287964,1.31,7.88,1.08,8.06
23.150405168533325,-0.12,6.87,0.9,6.92
23.16004490852356,-0.28,6.6,-0.14,6.6
23.1695659160614,-0.11,6.06,-1.65,6.28
23.179643869400024,-0.12,6.32,-1.88,6.59
23.19204306602478,-0.55,5.74,-1.96,6.09
23.200225114822388,-1.15,5.64,-1.08,5.85
23.210092067718506,-2.01,4.65,-0.58,5.09
23.21958088874817,-3.27,3.66,-0.13,4.9
23.229657888412476,-4.23,3.46,0.55,5.49
23.241246938705444,-4.49,3.25,0.95,5.62
23.250465154647827,-4.67,3.06,1.49,5.77
23.260076999664307,-4.9,3.16,1.63,6.05
23.26966404914856,-4.85,3.47,1.57,6.16
23.279757976531982,-4.63,4.04,1.46,6.31
23.291547060012817,-4.28,4.63,1.08,6.39
23.30031418800354,-4.43,5.13,1.16,6.87
23.310275077819824,-5.07,5.41,1.4,7.54
23.319660902023315,-5.56,5.62,1.82,8.11
23.32965111732483,-5.59,6.04,2.74,8.67
23.34116506576538,-5.06,6.8,3.71,9.25
23.350518941879272,-4.14,7.88,4.66,10.04
23.360184907913208,-2.99,8.87,5.92,11.07
23.369673013687134,-2.33,9.38,6.94,11.89
23.379687070846558,-2.5,9.43,7.59,12.36
23.391285181045532,-2.44,9.24,7.67,12.25
23.400279998779297,-1.98,9.19,7.28,11.89
23.410156965255737,-1.3,9.43,6.58,11.57
23.419770002365112,-0.54,9.64,5.76,11.24
23.42970108985901,-0.03,9.56,4.93,10.75
23.441386938095093,1.25,8.77,4.61,9.98
23.45037817955017,1.86,7.86,4.17,9.09
23.460150003433228,1.9,7.21,3.54,8.25
23.469678163528442,2.55,6.58,1.97,7.32
23.47970199584961,4.4,5.49,-0.41,7.04
23.491436004638672,7.64,4.37,-1.75,8.97
23.5002019405365,6.56,2.49,-0.55,7.03
23.51021409034729,3.6,1.71,1.49,4.25
23.519680976867676,2.48,1.65,3.0,4.22
23.529643058776855,1.76,1.04,3.35,3.92
23.540997982025146,1.35,0.24,3.2,3.48
23.550343990325928,1.66,-0.54,2.71,3.22
23.560211896896362,2.3,-1.46,2.18,3.48
23.569633960723877,2.73,-2.26,1.87,4.0
23.579658031463623,3.11,-2.62,1.69,4.4
23.591206073760986,3.43,-2.61,1.54,4.57
23.60031294822693,3.45,-2.58,1.06,4.43
23.610188961029053,3.65,-2.3,0.21,4.31
23.619652032852173,3.88,-1.84,-0.37,4.31
23.62977385520935,3.89,-1.85,-0.65,4.35
23.641443967819214,4.57,-2.07,-0.31,5.02
23.65036702156067,5.58,-2.58,0.06,6.14
23.660315990447998,5.99,-3.29,0.27,6.83
23.669903993606567,5.54,-4.37,0.24,7.06
23.679835081100464,4.69,-5.34,0.05,7.1
23.691569089889526,4.11,-5.89,-0.31,7.18
23.700452089309692,3.77,-6.26,-0.68,7.33
23.71024799346924,3.3,-6.74,-0.86,7.55
23.71984601020813,2.95,-7.17,-0.93,7.8
23.729806184768677,2.97,-7.57,-1.2,8.21
23.741822004318237,3.13,-8.01,-1.58,8.74
23.750662088394165,3.33,-8.24,-1.82,9.07
23.760253190994263,3.27,-8.24,-1.82,9.05
23.769831895828247,3.17,-8.0,-1.95,8.82
23.779860973358154,3.08,-7.35,-1.96,8.2
23.79270601272583,3.12,-6.83,-1.92,7.75
23.800598859786987,2.98,-6.93,-2.22,7.86
23.81047296524048,2.49,-7.28,-2.74,8.16
23.819863080978394,2.23,-7.14,-2.95,8.04
23.829936981201172,2.05,-6.72,-2.93,7.61
23.84198784828186,1.75,-6.59,-3.08,7.48
23.850722074508667,1.33,-6.47,-3.21,7.34
23.86042094230652,1.01,-6.15,-2.94,6.89
23.8699049949646,0.84,-5.95,-2.48,6.5
23.879835844039917,0.74,-5.77,-2.34,6.27
23.89189887046814,0.86,-5.39,-2.33,5.93
23.900656938552856,1.13,-4.94,-2.32,5.57
23.910436868667603,1.37,-4.61,-2.3,5.33
23.919957876205444,1.61,-4.44,-2.19,5.2
23.929928064346313,1.59,-4.28,-2.16,5.05
23.94196105003357,1.41,-4.02,-1.92,4.67
23.950713872909546,1.09,-3.56,-1.44,3.99
23.96037197113037,0.73,-2.92,-1.2,3.24
23.96983003616333,0.47,-2.38,-1.11,2.66
23.979981184005737,0.62,-1.84,-0.86,2.12
23.992241144180298,1.1,-1.15,-0.13,1.59
24.000535011291504,1.63,-0.35,0.85,1.87
24.010453939437866,1.86,0.27,1.47,2.38
24.019861936569214,1.76,0.75,1.77,2.6
24.029850006103516,1.85,1.32,2.03,3.04
24.041409969329834,1.91,1.99,2.33,3.61
24.0506751537323,1.86,2.48,2.46,3.95
24.06045699119568,1.75,2.92,2.99,4.53
24.069910049438477,1.01,3.14,3.9,5.1
24.079920053482056,0.48,3.18,4.19,5.28
24.0912868976593,0.58,3.72,4.14,5.59
24.100550889968872,0.6,4.33,4.16,6.03
24.110306978225708,0.58,4.56,3.82,5.97
24.119908094406128,0.34,4.71,3.24,5.72
24.1299889087677,-0.33,4.83,2.74,5.56
24.14136815071106,-0.92,4.92,2.58,5.63
24.150616884231567,-1.12,4.92,2.69,5.71
24.16039204597473,-0.7,4.37,2.74,5.2
24.169928073883057,-0.57,4.03,2.83,4.95
24.179852962493896,-0.86,3.79,2.87,4.83
24.19145107269287,-0.88,3.45,2.79,4.52
24.200711011886597,-0.79,3.12,2.87,4.31
24.2104651927948,-0.87,2.87,2.84,4.13
24.220067024230957,-0.79,2.76,2.52,3.81
24.22995400428772,-0.6,2.7,1.91,3.36
24.241477966308594,-0.77,2.66,1.43,3.11
24.25073790550232,-1.14,2.47,0.79,2.83
24.260555028915405,-1.39,2.29,0.28,2.69
24.269999980926514,-1.45,2.12,0.26,2.58
24.27993893623352,-1.26,1.7,0.47,2.16
24.291754961013794,-1.18,1.4,0.6,1.92
24.300689935684204,-1.47,1.17,0.66,1.99
24.310572862625122,-1.22,0.63,0.66,1.52
24.319926023483276,-0.92,0.44,0.81,1.3
24.330107927322388,-0.57,0.4,0.86,1.1
24.341531991958618,-0.28,0.25,0.96,1.03
24.35076117515564,-0.16,0.25,1.12,1.15
24.360603094100952,0.07,0.27,1.1,1.13
24.372356176376343,0.11,0.18,1.0,1.02
24.379961013793945,-0.2,0.08,0.72,0.75
24.391409158706665,-0.51,-0.22,0.6,0.81
24.400629997253418,-0.84,-0.49,0.62,1.15
24.41035008430481,-1.29,-0.55,0.7,1.56
24.419994115829468,-1.27,-0.81,0.41,1.56
24.42992615699768,-1.18,-0.92,0.05,1.49
24.44061589241028,-0.98,-0.72,0.01,1.21
24.450795888900757,-0.63,-0.62,0.17,0.9
24.46041202545166,-0.44,-0.76,0.35,0.94
24.469960927963257,-0.45,-0.86,0.45,1.06
24.479920148849487,-0.44,-0.9,0.39,1.07
24.490735054016113,-0.36,-0.89,0.27,0.99
24.50063395500183,-0.23,-0.93,0.21,0.98
24.510446071624756,-0.2,-0.98,0.33,1.05
24.520128965377808,-0.31,-1.01,0.13,1.06
24.529988050460815,-0.51,-1.01,-0.34,1.18
24.540880918502808,-0.73,-0.95,-0.47,1.28
24.55083203315735,-0.94,-0.97,-0.4,1.4
24.560564041137695,-1.11,-1.01,-0.58,1.6
24.57001519203186,-0.94,-0.88,-0.62,1.42
24.58005118370056,-0.7,-0.8,-0.42,1.14
24.591057062149048,-0.52,-0.83,0.04,0.98
24.600769996643066,-0.56,-0.9,0.37,1.12
24.61070418357849,-0.76,-0.93,0.53,1.31
24.620094060897827,-0.79,-0.79,0.56,1.24
24.63011598587036,-0.62,-0.79,0.51,1.12
24.641475915908813,-0.35,-0.74,0.65,1.04
24.6508629322052,-0.2,-0.46,0.75,0.9
24.660792112350464,-0.22,-0.18,0.59,0.65
24.670161962509155,-0.22,0.01,0.22,0.31
24.680236101150513,-0.18,0.12,-0.23,0.31
24.69175887107849,-0.18,0.14,-0.43,0.48
24.700862169265747,-0.24,0.02,-0.22,0.32
24.710649013519287,-0.43,-0.16,0.04,0.46
24.72017788887024,-0.64,-0.35,0.32,0.79
24.730686902999878,-0.85,-0.52,0.65,1.18
24.74118685722351,-1.12,-0.72,0.84,1.57
24.756432056427002,-1.16,-0.71,0.57,1.47
24.760814905166626,-0.92,-0.53,-0.01,1.06
24.770310163497925,-0.8,-0.28,-0.31,0.9
24.780629873275757,-0.95,0.05,-0.48,1.06
24.791127920150757,-1.23,0.36,-0.53,1.38
24.806796073913574,-1.35,0.6,-0.32,1.51
24.810894012451172,-1.43,0.68,-0.04,1.58
24.820274114608765,-1.3,0.65,0.11,1.45
24.830744981765747,-0.86,0.51,0.17,1.01
24.84104895591736,-0.35,0.28,0.08,0.45
24.856571912765503,0.21,0.05,-0.13,0.25
24.860658884048462,0.73,-0.05,-0.13,0.74
24.87023901939392,1.14,-0.17,0.0,1.15
24.88059687614441,1.23,-0.24,0.16,1.26
24.891329050064087,1.08,-0.04,0.33,1.13
24.90727686882019,0.85,0.37,0.5,1.05
24.910919904708862,0.66,0.7,0.51,1.08
24.920222997665405,0.49,0.7,0.27,0.89
24.93073606491089,0.34,0.5,-0.02,0.6
24.9412260055542,0.19,0.35,-0.46,0.6
24.95684790611267,0.14,0.34,-0.91,0.98
24.960864067077637,0.29,0.5,-0.96,1.12
24.970301866531372,1.33,1.23,-0.39,1.85
24.980665922164917,2.42,1.91,0.56,3.13
24.9911048412323,2.23,1.76,0.12,2.84
25.007192850112915,2.32,2.01,0.65,3.13
25.010903120040894,2.16,1.97,1.08,3.11
25.020457983016968,1.67,1.53,0.54,2.32
25.030744075775146,1.38,1.09,-0.11,1.76
25.041195154190063,1.37,0.81,-0.61,1.7
25.05634307861328,1.11,0.71,-0.75,1.51
25.0608971118927,0.79,0.78,-0.98,1.48
25.07031512260437,0.54,0.79,-1.25,1.57
25.080594062805176,0.41,0.72,-1.29,1.53
25.09120202064514,0.34,0.57,-1.21,1.38
25.105872869491577,0.29,0.25,-1.12,1.18
25.11087703704834,0.16,-0.16,-0.84,0.86
25.12038016319275,0.03,-0.49,-0.62,0.79
25.130688905715942,0.09,-0.64,-0.49,0.81
25.141016960144043,0.24,-0.66,-0.45,0.83
25.15569806098938,0.33,-0.66,-0.4,0.83
25.160806894302368,0.41,-0.69,-0.22,0.83
25.170268058776855,0.35,-0.73,0.02,0.8
25.180597066879272,0.15,-0.6,0.17,0.64
25.19140887260437,0.04,-0.61,0.13,0.62
25.205930948257446,0.09,-0.85,-0.02,0.85
25.210793018341064,0.09,-0.88,-0.14,0.89
25.22039294242859,0.02,-0.86,-0.16,0.87
25.230735063552856,-0.04,-0.85,-0.18,0.86
25.241222143173218,0.0,-0.84,-0.28,0.88
25.255860090255737,0.17,-0.75,-0.43,0.88
25.2609441280365,0.28,-0.63,-0.62,0.92
25.27041506767273,0.18,-0.68,-0.54,0.88
25.281051874160767,0.05,-0.8,0.22,0.83
25.292752027511597,0.12,-0.88,1.45,1.7
25.305783987045288,0.34,-0.5,2.19,2.27
25.31094717979431,0.64,-0.38,2.05,2.18
25.3204128742218,0.92,-0.64,1.36,1.76
25.330761194229126,0.86,-0.54,0.62,1.18
25.341206073760986,0.63,-0.42,-0.15,0.77
25.355753183364868,0.55,-0.2,-0.05,0.58
25.36087918281555,0.54,-0.18,0.34,0.66
25.370442152023315,0.21,-0.23,0.54,0.62
