time,ax,ay,az,atotal
0.006951093673706055,-0.13,-0.05,-0.17,0.21
0.015170097351074219,-0.18,-0.07,-0.01,0.19
0.025124073028564453,-0.26,-0.1,-0.12,0.3
0.037217140197753906,-0.15,-0.03,-0.19,0.24
0.04508495330810547,0.15,0.01,-0.09,0.17
0.05699610710144043,0.09,0.02,0.04,0.1
0.06502008438110352,0.04,0.22,-0.07,0.23
0.0751190185546875,-0.08,0.24,0.0,0.25
0.08730316162109375,0.04,0.2,0.0,0.2
0.09510111808776855,0.16,0.18,0.03,0.24
0.1071009635925293,0.18,0.08,-0.03,0.19
0.11512517929077148,-0.04,-0.03,0.04,0.06
0.12518596649169922,-0.07,-0.07,0.13,0.16
0.13747406005859375,-0.18,0.04,-0.02,0.18
0.14519715309143066,-0.32,0.14,0.08,0.35
0.1569991111755371,-0.21,-0.02,0.24,0.31
0.1651592254638672,-0.06,-0.14,0.14,0.2
0.1751880645751953,0.19,-0.05,-0.03,0.19
0.18746519088745117,0.42,0.05,-0.07,0.42
0.19519424438476562,0.51,0.04,-0.13,0.52
0.2071552276611328,0.36,0.01,-0.2,0.41
0.21522116661071777,0.01,0.03,-0.22,0.22
0.22521305084228516,-0.36,0.03,-0.16,0.39
0.23740315437316895,-0.47,0.11,-0.16,0.5
0.24526214599609375,-0.53,0.09,0.06,0.54
0.25699329376220703,-0.53,-0.11,0.24,0.59
0.26523613929748535,-0.56,-0.17,0.28,0.64
0.2752261161804199,-0.59,-0.11,0.2,0.63
0.28748011589050293,-0.51,-0.06,0.04,0.51
0.29529714584350586,-0.17,-0.08,-0.14,0.23
0.30721616744995117,0.29,-0.41,-0.09,0.51
0.31525421142578125,1.23,0.29,0.08,1.26
0.3252840042114258,1.02,0.43,-0.33,1.15
0.3374490737915039,0.46,0.08,-0.51,0.69
0.34528398513793945,0.33,-0.18,-0.57,0.68
0.35726213455200195,0.07,-0.11,-0.5,0.51
0.36533117294311523,-0.51,0.03,-0.23,0.56
0.37523818016052246,-0.75,0.17,-0.19,0.79
0.38755321502685547,-0.64,0.18,-0.13,0.67
0.3953220844268799,-0.1,0.15,-0.06,0.19
0.4071922302246094,0.04,0.14,-0.12,0.18
0.4153122901916504,-0.1,0.13,0.28,0.32
0.4254460334777832,-0.18,-0.04,0.38,0.42
0.43766021728515625,-0.34,-0.08,-0.17,0.38
0.44532012939453125,-0.49,0.02,-0.38,0.62
0.4571542739868164,-0.35,0.1,-0.27,0.45
0.465482234954834,-0.13,0.01,-0.2,0.23
0.47536420822143555,0.04,-0.19,-0.04,0.19
0.48767900466918945,0.2,-0.28,0.27,0.43
0.4954400062561035,-0.03,-0.05,0.34,0.34
0.5072360038757324,-0.35,0.2,0.26,0.47
0.5154953002929688,-0.43,0.13,0.27,0.52
0.5254511833190918,-0.42,-0.06,0.35,0.54
0.5377480983734131,-0.4,-0.08,0.31,0.51
0.5454771518707275,-0.33,-0.11,0.54,0.64
0.5573241710662842,-0.33,-0.05,0.46,0.56
0.5653541088104248,-0.33,0.06,0.09,0.34
0.5753860473632812,-0.06,0.02,0.17,0.18
0.587752103805542,0.23,0.01,0.12,0.25
0.5954151153564453,0.33,-0.04,0.07,0.33
0.6072540283203125,0.18,0.02,0.22,0.28
0.6155242919921875,-0.12,0.17,0.19,0.28
0.625669002532959,-0.13,0.21,0.23,0.33
0.6377472877502441,0.35,0.24,0.52,0.67
0.6454811096191406,1.04,0.16,0.66,1.24
0.6572670936584473,1.41,0.14,0.4,1.47
0.6653671264648438,1.41,0.21,0.5,1.51
0.6755890846252441,1.5,0.3,0.94,1.79
0.6876950263977051,1.79,0.4,0.8,2.0
0.6955621242523193,2.13,0.46,0.31,2.2
0.707435131072998,2.43,0.52,0.36,2.51
0.7155251502990723,2.71,0.78,0.37,2.84
0.7256712913513184,2.91,1.19,-0.24,3.15
0.7378029823303223,2.96,1.4,-0.69,3.34
0.7455310821533203,3.03,1.54,-1.08,3.56
0.7572741508483887,3.73,2.32,-1.63,4.68
0.765484094619751,4.75,3.55,-1.63,6.14
0.7754611968994141,5.62,4.92,-0.74,7.5
0.7877171039581299,6.64,5.73,-0.29,8.77
0.7954750061035156,7.76,5.59,-1.05,9.62
0.8073229789733887,8.7,4.68,-1.79,10.03
0.8155550956726074,9.14,3.06,-2.69,10.0
0.8256270885467529,8.69,0.88,-2.98,9.22
0.8378520011901855,7.28,-1.31,-2.42,7.78
0.8455562591552734,5.97,-3.06,-1.44,6.86
0.8576221466064453,5.72,-4.02,-0.74,7.03
0.8656191825866699,5.8,-4.39,-0.53,7.29
0.8757171630859375,6.56,-4.68,0.54,8.07
0.8877441883087158,7.73,-4.58,-0.2,8.98
0.8955302238464355,9.19,-3.98,-1.48,10.12
0.9074282646179199,10.16,-3.09,-1.52,10.72
0.915776252746582,9.7,-1.78,-1.0,9.91
0.9255821704864502,8.13,-0.18,-0.24,8.13
0.9377281665802002,7.42,0.7,0.19,7.45
0.9457812309265137,6.93,0.71,-0.27,6.97
0.9573590755462646,5.59,0.62,-0.65,5.66
0.9676332473754883,4.83,0.62,-0.53,4.89
0.9755172729492188,4.44,0.64,-0.31,4.49
0.9878630638122559,3.8,0.59,-0.36,3.86
0.9955980777740479,3.1,0.34,-0.33,3.13
1.0074501037597656,2.42,-0.1,-0.41,2.45
1.0175600051879883,1.95,-0.37,-0.78,2.13
1.0256421566009521,1.55,-0.39,-0.9,1.83
1.0377302169799805,0.78,-0.52,-0.91,1.3
1.0455541610717773,-0.23,-0.68,-1.2,1.39
1.0573351383209229,-0.97,-0.71,-1.45,1.88
1.0674901008605957,-1.46,-0.74,-1.42,2.16
1.0756301879882812,-1.92,-0.77,-1.55,2.58
1.0877790451049805,-2.43,-0.73,-1.62,3.01
1.0956361293792725,-3.09,-0.52,-1.54,3.49
1.1074461936950684,-3.75,-0.32,-1.65,4.1
1.1174771785736084,-4.3,-0.39,-1.74,4.65
1.125655174255371,-4.79,-0.22,-1.97,5.18
1.137775182723999,-4.92,0.41,-2.14,5.38
1.1455450057983398,-4.84,0.87,-1.9,5.27
1.1574151515960693,-4.67,1.3,-2.12,5.29
1.1675572395324707,-4.55,1.85,-2.38,5.45
1.175563097000122,-4.59,2.15,-2.6,5.69
1.1878321170806885,-4.69,2.35,-3.09,6.08
1.1955642700195312,-5.16,2.52,-3.11,6.53
1.2073841094970703,-5.7,2.26,-3.38,7.0
1.2175321578979492,-6.32,1.23,-4.31,7.74
1.2256431579589844,-6.95,-0.09,-5.35,8.77
1.2379121780395508,-7.22,0.13,-4.38,8.44
1.2456700801849365,-7.56,1.16,-2.25,7.97
1.257528305053711,-7.98,2.23,-0.91,8.33
1.2676441669464111,-7.96,6.92,8.41,13.48
1.2758212089538574,-1.95,11.48,14.65,18.71
1.287830114364624,3.16,9.58,0.14,10.08
1.2957091331481934,3.72,7.04,-7.09,10.66
1.3076152801513672,0.77,0.54,-0.29,0.98
1.3176522254943848,-3.27,-3.95,2.96,5.92
1.3257231712341309,-5.02,-4.23,-2.0,6.86
1.3378982543945312,-6.77,-2.19,-5.63,9.07
1.3457491397857666,-9.1,0.13,-4.04,9.95
1.3575201034545898,-10.04,1.26,-4.92,11.25
1.3680131435394287,-10.2,1.05,-4.43,11.16
1.3757331371307373,-7.8,0.24,0.72,7.83
1.388024091720581,-2.36,-0.29,-0.44,2.41
1.3957881927490234,-0.64,-0.92,0.47,1.21
1.4078192710876465,0.23,-0.79,1.5,1.71
1.4178400039672852,1.34,-0.16,1.91,2.33
1.4258079528808594,1.12,-0.06,1.96,2.25
1.4380741119384766,-1.29,-0.13,1.03,1.65
1.4457881450653076,-3.35,0.02,0.23,3.35
1.4578821659088135,-3.76,0.04,-0.48,3.79
1.4677720069885254,-2.9,-0.02,-1.39,3.21
1.475917100906372,-1.09,0.12,-1.47,1.83
1.4882349967956543,0.72,0.31,-0.82,1.13
1.4959139823913574,1.98,0.35,-0.03,2.01
1.507925033569336,2.23,0.33,0.12,2.25
1.517822265625,1.72,0.15,0.26,1.74
1.5260491371154785,0.61,-0.07,0.39,0.72
1.5381841659545898,-0.48,0.14,-0.12,0.51
1.5461771488189697,-0.89,0.41,-0.76,1.24
1.5579111576080322,-0.99,0.58,-0.78,1.38
1.5679302215576172,-0.23,0.72,-0.3,0.81
1.5760812759399414,0.76,0.51,-0.35,0.97
1.5882601737976074,1.28,0.33,-0.32,1.36
1.595973014831543,1.73,0.43,-0.22,1.79
1.607964038848877,1.84,0.52,-0.07,1.91
1.6178381443023682,1.56,0.61,0.55,1.76
1.6260151863098145,1.21,0.75,0.43,1.48
1.6390690803527832,0.95,1.15,0.34,1.52
1.646012306213379,0.89,1.66,0.68,2.0
1.6579070091247559,1.58,2.04,0.48,2.62
1.6677651405334473,2.11,2.18,0.15,3.03
1.6759982109069824,2.63,2.43,-0.02,3.58
1.6882872581481934,2.72,2.62,-0.22,3.78
1.6961421966552734,2.54,2.84,-0.09,3.81
1.707733154296875,2.51,3.21,0.71,4.13
1.7177281379699707,3.06,3.73,1.66,5.1
1.7261099815368652,3.45,4.27,2.28,5.94
1.738192081451416,3.59,4.88,2.29,6.47
1.7461490631103516,4.01,5.6,1.48,7.04
1.7578539848327637,4.43,5.9,0.13,7.37
1.7677040100097656,4.97,6.28,-1.39,8.12
1.7760140895843506,5.51,6.99,-1.52,9.02
1.788358211517334,6.12,7.87,-1.1,10.03
1.796086072921753,6.96,9.04,-0.74,11.43
1.8078160285949707,8.12,10.66,-0.36,13.4
1.817519187927246,9.98,12.3,-0.02,15.83
1.8266491889953613,11.95,13.08,-0.58,17.72
1.8390960693359375,13.58,12.77,-1.54,18.7
1.846601963043213,14.47,12.38,-1.71,19.11
1.8579602241516113,14.44,12.18,-2.52,19.05
1.869542121887207,14.17,11.77,-4.2,18.89
1.876716136932373,12.82,10.99,-4.84,17.56
1.8906831741333008,9.68,9.7,-2.92,14.01
1.8970880508422852,7.34,7.99,2.62,11.16
1.9084620475769043,7.19,6.88,0.88,9.99
1.9189252853393555,7.3,5.53,-4.69,10.28
1.9267981052398682,6.36,1.9,-3.01,7.28
1.9407010078430176,5.48,-0.54,-2.95,6.24
1.946843147277832,5.83,-2.05,-5.77,8.45
1.958754062652588,6.71,-3.51,-3.87,8.5
1.9691710472106934,8.21,-4.51,-0.49,9.37
1.9768309593200684,9.62,-5.62,1.54,11.24
1.9907450675964355,10.51,-6.66,3.19,12.84
1.9972319602966309,11.05,-7.24,2.96,13.53
2.0087289810180664,10.92,-6.43,1.81,12.8
2.0188090801239014,8.87,-4.22,0.6,9.84
2.0267951488494873,6.32,-2.48,0.36,6.79
2.0408272743225098,4.4,-1.3,1.39,4.79
2.046786069869995,3.38,-0.82,1.93,3.97
2.058612108230591,3.61,-0.79,2.27,4.33
2.069080114364624,4.09,-0.84,2.5,4.86
2.076935291290283,3.53,-0.71,2.65,4.47
2.0908732414245605,2.62,-0.36,2.32,3.51
2.097243070602417,1.84,0.3,2.39,3.03
2.1086220741271973,1.21,1.27,2.21,2.82
2.11857008934021,0.41,2.27,1.16,2.58
2.126824140548706,-0.84,3.14,0.06,3.25
2.1408281326293945,-2.0,3.89,-0.12,4.37
2.1469521522521973,-2.88,4.64,-0.27,5.46
2.1587271690368652,-3.77,5.22,-1.15,6.54
2.1690711975097656,-4.71,5.71,-2.03,7.67
2.1769142150878906,-5.77,6.23,-2.49,8.84
2.1907541751861572,-6.92,6.72,-3.0,10.1
2.197388172149658,-7.89,7.02,-3.64,11.17
2.2087531089782715,-8.89,7.2,-3.97,12.1
2.2185401916503906,-10.14,7.03,-4.56,13.15
2.2268941402435303,-11.48,6.57,-6.14,14.58
2.24084210395813,-12.57,6.21,-7.82,16.05
2.2468461990356445,-14.05,5.96,-7.09,16.82
2.2587122917175293,-15.39,5.04,-6.27,17.36
2.2688350677490234,-16.24,3.89,-8.54,18.75
2.276977062225342,-18.16,2.64,-8.21,20.1
2.2907791137695312,-19.16,1.1,-6.45,20.24
2.2973620891571045,-19.1,-0.67,-4.37,19.6
2.3088669776916504,-18.6,-1.97,-3.32,18.99
2.3185181617736816,-16.17,-0.62,-2.05,16.31
2.3272011280059814,-11.28,2.53,0.18,11.56
2.3408901691436768,-7.1,5.85,4.81,10.38
2.3471202850341797,-0.42,8.82,13.16,15.84
2.358889102935791,7.74,11.38,26.73,30.06
2.366992950439453,4.53,12.63,3.16,13.78
2.3764100074768066,-0.29,13.79,-18.02,22.69
2.388864040374756,1.54,5.76,-8.96,10.76
2.3963820934295654,0.18,-1.24,-8.3,8.39
2.4085302352905273,-2.0,-2.31,-12.96,13.31
2.4170641899108887,-7.36,-3.58,-0.48,8.19
2.426669120788574,-10.52,-4.28,4.68,12.28
2.438681125640869,-10.09,-3.39,-12.53,16.44
2.446646213531494,-15.22,-3.89,0.68,15.72
2.4583072662353516,-18.12,-2.78,8.34,20.13
2.467010021209717,-15.24,0.1,-0.2,15.24
2.476552963256836,-7.45,1.54,-0.69,7.63
2.488826274871826,-1.44,1.1,-0.34,1.84
2.496556282043457,2.03,1.13,2.71,3.56
2.508563995361328,4.96,1.57,2.46,5.75
2.5168333053588867,5.07,1.19,-3.31,6.17
2.5266270637512207,1.47,0.26,-4.28,4.53
2.5388011932373047,-5.34,0.2,-1.2,5.47
2.546586036682129,-7.24,1.3,0.44,7.36
2.558454990386963,-3.81,1.71,2.42,4.82
2.566771984100342,1.1,1.61,1.72,2.6
2.576630115509033,3.14,1.93,1.57,4.0
2.5888452529907227,3.88,2.29,1.27,4.68
2.596811294555664,3.64,1.99,0.1,4.14
2.6086151599884033,3.74,1.0,-0.53,3.9
2.616755962371826,3.01,-0.17,-0.69,3.09
2.6267621517181396,0.59,-0.73,-0.71,1.17
2.638932228088379,-0.24,-0.47,-0.56,0.76
2.6466481685638428,0.29,-0.24,-0.22,0.43
2.6586310863494873,1.29,-0.14,-0.07,1.29
2.666774272918701,2.26,0.01,0.36,2.28
2.6765851974487305,2.78,-0.07,0.77,2.88
2.689044952392578,2.7,-0.41,0.27,2.74
2.6964969635009766,1.95,-0.9,0.24,2.16
2.7085490226745605,1.15,-1.16,0.51,1.71
2.716696262359619,0.58,-1.02,0.08,1.17
2.726684093475342,0.53,-0.47,-0.1,0.71
2.7389349937438965,0.92,0.27,-0.33,1.01
2.747803211212158,1.45,0.95,-0.33,1.76
2.758594036102295,2.04,1.57,-0.18,2.58
2.7666549682617188,2.54,2.26,-0.25,3.4
2.7767231464385986,2.9,3.17,-0.14,4.29
2.7889132499694824,3.38,4.21,-0.04,5.39
2.7965922355651855,3.82,5.21,0.42,6.47
2.8086280822753906,4.1,6.13,1.3,7.48
2.8166489601135254,4.41,7.05,2.13,8.58
2.8265321254730225,4.93,7.8,3.38,9.82
2.838853120803833,5.49,8.11,3.42,10.37
2.8466310501098633,6.16,8.12,2.04,10.39
2.8584301471710205,7.09,8.36,1.19,11.02
2.866619110107422,7.95,9.34,1.02,12.3
2.87650728225708,8.99,10.85,0.78,14.11
2.889573097229004,10.4,12.43,-0.04,16.2
2.897758960723877,11.14,14.07,-4.28,18.44
2.908980131149292,12.08,16.89,-7.7,22.14
2.9167799949645996,14.76,18.08,-5.29,23.93
2.9268360137939453,18.05,17.15,-0.73,24.9
2.9413743019104004,18.45,14.36,-3.15,23.59
2.9475481510162354,12.89,9.68,1.4,16.18
2.9592342376708984,7.53,8.77,3.89,12.19
2.9681971073150635,6.37,8.75,-4.33,11.65
2.97737717628479,4.68,4.82,-7.49,10.06
2.9912710189819336,2.4,1.07,-4.01,4.79
2.9981491565704346,0.71,-0.75,-4.42,4.53
3.009012222290039,0.53,-2.94,-4.44,5.35
3.017937183380127,2.18,-4.0,-0.69,4.6
3.0272891521453857,5.41,-4.41,1.82,7.21
3.0412681102752686,8.6,-4.75,2.56,10.15
3.047664165496826,10.43,-4.94,2.72,11.85
3.0591073036193848,11.09,-4.84,0.89,12.13
3.068143129348755,11.66,-4.23,0.28,12.4
3.07743501663208,11.31,-2.73,1.03,11.68
3.091182231903076,8.53,-1.25,2.21,8.89
3.098079204559326,4.96,-0.46,2.74,5.68
3.109004020690918,3.34,-0.16,2.83,4.38
3.1178390979766846,2.58,-0.17,2.71,3.74
3.1280770301818848,2.25,-0.05,2.18,3.13
3.1413869857788086,1.74,-0.01,2.54,3.07
3.1477391719818115,1.63,0.03,2.88,3.3
3.159245014190674,1.8,0.15,2.41,3.01
3.1681442260742188,1.22,0.65,1.5,2.03
3.1775832176208496,-0.2,1.23,1.51,1.95
3.191357135772705,-1.61,1.65,1.17,2.58
3.1983041763305664,-2.5,1.92,0.36,3.17
3.2090871334075928,-3.16,2.27,0.46,3.91
3.2178680896759033,-3.92,2.8,0.0,4.81
3.227412223815918,-4.75,3.43,-1.27,5.99
3.241471290588379,-5.54,4.06,-1.84,7.11
3.2476119995117188,-6.23,4.52,-1.47,7.83
3.259512186050415,-6.93,4.59,-1.42,8.43
3.2682671546936035,-7.64,4.55,-2.01,9.11
3.277517080307007,-8.91,4.7,-3.3,10.6
3.291382074356079,-10.22,5.15,-5.58,12.73
3.2983269691467285,-11.46,5.67,-7.25,14.69
3.309298038482666,-12.74,6.1,-7.77,16.12
3.3178672790527344,-14.08,5.67,-7.38,16.87
3.327583074569702,-15.9,3.84,-8.55,18.45
3.3414721488952637,-17.33,2.12,-11.33,20.81
3.347715139389038,-18.33,0.74,-9.88,20.83
3.3592772483825684,-19.56,-1.23,-6.5,20.64
3.368223190307617,-19.95,-2.48,-4.73,20.65
3.377624034881592,-18.17,-1.69,-2.67,18.44
3.3914432525634766,-11.98,3.44,0.04,12.46
3.3982791900634766,-1.63,11.22,14.05,18.05
3.408550262451172,4.18,14.15,24.99,29.02
3.4166722297668457,-2.58,14.8,-13.31,20.07
3.4274120330810547,-6.87,11.24,-21.49,25.2
3.4415881633758545,-6.09,1.77,-9.36,11.3
3.447751998901367,-4.14,-2.13,-3.7,5.94
3.4592690467834473,-6.69,-4.38,0.0,7.99
3.4684531688690186,-10.77,-4.67,2.15,11.93
3.4775662422180176,-11.74,-3.85,-10.0,15.89
3.4915881156921387,-15.81,-2.93,2.43,16.26
3.498410224914551,-17.5,0.23,7.8,19.16
3.5093092918395996,-9.78,1.44,-2.73,10.25
3.518111228942871,-2.93,0.39,-2.97,4.19
3.5274951457977295,0.17,0.79,-0.63,1.02
3.5415310859680176,2.41,1.04,1.47,3.0
3.5477542877197266,4.04,1.43,1.45,4.52
3.559329032897949,3.81,1.31,-2.35,4.66
3.568490982055664,0.67,0.78,-3.22,3.38
3.5777101516723633,-4.51,0.66,-1.29,4.73
3.5914201736450195,-5.67,1.11,0.19,5.78
3.5982820987701416,-3.72,1.1,1.06,4.02
3.6092891693115234,-0.18,0.78,1.38,1.59
3.6182401180267334,1.68,0.9,0.89,2.1
3.6275901794433594,2.53,1.46,1.17,3.14
3.641479015350342,3.59,1.67,0.75,4.02
3.647902011871338,4.23,1.14,-0.97,4.48
3.6594221591949463,4.47,0.5,-1.28,4.67
3.6684470176696777,3.95,-0.03,-0.06,3.95
3.677731990814209,0.69,-0.47,0.26,0.87
3.691615104675293,-0.39,-0.64,0.14,0.76
3.6985440254211426,0.71,-0.83,0.12,1.09
3.709397077560425,1.73,-0.89,-0.48,2.0
3.718224048614502,2.17,-0.74,-0.45,2.33
3.727607250213623,2.42,-0.62,-0.27,2.51
3.741697072982788,2.07,-0.76,-0.37,2.23
3.7479872703552246,1.39,-0.95,0.16,1.69
3.7595582008361816,0.88,-0.46,0.32,1.04
3.768571138381958,0.51,0.61,0.25,0.83
3.77786922454834,0.54,1.57,0.5,1.73
3.7916512489318848,1.04,2.17,0.39,2.43
3.798501968383789,1.98,2.43,0.3,3.14
3.809507131576538,3.16,2.71,0.03,4.16
3.818291187286377,4.11,3.23,-0.51,5.25
3.8277580738067627,4.47,4.12,-0.87,6.14
3.841569185256958,4.82,5.15,-0.58,7.07
3.84804630279541,4.63,6.0,0.07,7.57
3.859480142593384,4.49,6.76,1.39,8.23
3.868610143661499,4.63,7.31,1.71,8.82
3.8778181076049805,5.21,7.65,1.1,9.32
3.891829013824463,6.03,8.0,0.09,10.01
3.8985142707824707,7.0,8.92,-1.25,11.4
3.909480094909668,7.91,10.54,-2.19,13.35
3.9178919792175293,9.42,12.46,-2.04,15.75
3.927618980407715,11.53,13.86,-1.96,18.13
3.939925193786621,13.25,14.78,-5.23,20.52
3.947378158569336,15.04,15.73,-5.69,22.49
3.959705114364624,17.07,16.07,-4.32,23.83
3.9669971466064453,18.39,15.0,-5.41,24.34
3.9778261184692383,16.9,13.29,-5.43,22.17
3.991798162460327,10.45,10.9,0.02,15.1
3.998566150665283,7.09,9.84,0.39,12.13
4.009693145751953,7.08,8.69,-6.9,13.16
4.01850700378418,5.64,4.96,-7.4,10.54
4.027787208557129,3.47,1.7,-3.01,4.89
4.041959285736084,2.36,0.12,-4.09,4.72
4.048019170761108,1.46,-1.85,-4.45,5.03
4.05965518951416,2.35,-3.38,-1.9,4.53
4.0687360763549805,4.42,-4.54,-0.08,6.33
4.078013181686401,6.44,-5.49,1.71,8.63
4.091827154159546,8.56,-5.92,2.54,10.71
4.098589181900024,10.08,-5.75,1.23,11.66
4.109638214111328,10.49,-5.2,0.14,11.7
4.1184492111206055,9.52,-4.34,0.36,10.46
4.1278181076049805,6.63,-3.38,0.7,7.47
4.141909122467041,4.84,-2.8,0.86,5.65
4.147863149642944,4.76,-2.63,1.14,5.55
4.159797191619873,5.63,-2.52,1.24,6.29
4.168913125991821,5.87,-2.16,1.55,6.44
4.178129196166992,5.38,-1.48,2.16,5.98
4.191909074783325,4.43,-0.86,2.18,5.01
4.198306083679199,2.98,-0.43,1.83,3.52
4.209646224975586,1.24,-0.08,1.37,1.84
4.218573093414307,-0.36,0.44,1.18,1.3
4.227849006652832,-1.79,1.25,0.93,2.37
4.241868019104004,-3.06,2.28,0.78,3.89
4.247709274291992,-3.96,2.92,0.59,4.95
4.260094165802002,-4.14,3.43,0.23,5.38
4.26883602142334,-3.67,3.86,0.14,5.32
4.2782111167907715,-3.7,4.44,0.09,5.78
4.291930198669434,-3.85,5.13,-0.16,6.41
4.298346042633057,-4.07,6.12,0.0,7.34
4.309699058532715,-4.54,6.86,0.63,8.25
4.318562030792236,-6.07,6.97,0.12,9.24
4.327944278717041,-7.97,7.15,-1.46,10.8
4.341905117034912,-9.99,7.87,-2.75,13.01
4.348026275634766,-12.15,8.16,-3.26,14.99
4.359920024871826,-13.69,7.62,-4.62,16.33
4.370489120483398,-14.63,5.96,-6.42,17.05
4.378070116043091,-15.74,3.99,-7.92,18.06
4.391834259033203,-17.78,2.41,-6.8,19.18
4.398458003997803,-18.77,1.31,-6.35,19.85
4.409785270690918,-19.37,0.37,-6.44,20.41
4.418576240539551,-20.26,-0.61,-5.24,20.93
4.4280030727386475,-20.68,-1.63,-3.85,21.09
4.442098140716553,-19.39,-0.33,-2.63,19.57
4.447983264923096,-13.52,4.27,1.63,14.27
4.460127115249634,-0.61,11.0,16.27,19.64
4.467493057250977,8.29,15.53,35.21,39.36
4.477674961090088,-0.84,17.4,-10.98,20.59
4.489785194396973,-3.67,14.72,-20.25,25.3
4.49742317199707,-1.1,4.31,-8.62,9.7
4.509218215942383,-0.38,-1.34,-8.59,8.7
4.517529010772705,-2.1,-3.59,-3.18,5.23
4.527444124221802,-8.26,-4.65,6.34,11.4
4.5397210121154785,-9.15,-4.04,-8.56,13.16
4.547369003295898,-12.28,-4.49,-7.61,15.12
4.559357166290283,-17.55,-2.95,6.26,18.86
4.567512035369873,-18.1,-0.12,2.04,18.21
4.57761812210083,-12.03,-0.63,-1.9,12.19
4.589843273162842,-3.19,-0.17,0.63,3.25
4.597424030303955,0.34,1.03,1.69,2.0
4.609510183334351,1.98,1.68,1.57,3.03
4.617510080337524,3.86,2.06,1.01,4.49
4.62755012512207,4.72,1.69,-2.54,5.62
4.639921188354492,3.46,0.66,-4.26,5.52
4.647558212280273,-3.11,-0.22,-2.3,3.87
4.659451007843018,-6.66,0.2,-0.14,6.66
4.6675591468811035,-4.21,0.88,1.61,4.59
4.677690029144287,0.45,0.92,1.74,2.01
4.689888000488281,2.6,1.14,0.92,2.98
4.697632074356079,3.32,1.37,0.88,3.69
4.709390163421631,3.52,1.21,0.29,3.73
4.717595100402832,3.54,0.91,0.24,3.66
4.727617263793945,1.89,0.35,0.15,1.92
4.739907264709473,0.17,0.11,-0.04,0.2
4.747659206390381,-0.23,0.11,0.07,0.26
4.759768009185791,-0.22,-0.03,-0.16,0.27
4.767796039581299,0.11,-0.26,-0.27,0.39
4.777883052825928,0.98,-0.37,0.2,1.06
4.790078163146973,1.77,-0.33,0.49,1.86
4.797738075256348,2.16,-0.29,0.65,2.27
4.809729099273682,2.47,-0.48,0.77,2.63
4.817784070968628,2.65,-0.99,0.36,2.85
4.82780122756958,3.07,-1.18,-0.12,3.29
4.84021520614624,3.02,-0.46,-0.65,3.12
4.847684144973755,2.44,0.72,-1.13,2.78
4.859607219696045,1.57,1.5,-0.75,2.29
4.867800235748291,0.99,1.8,-0.97,2.27
4.8778300285339355,1.27,2.25,-0.83,2.71
4.889991283416748,2.32,2.85,-0.44,3.7
4.8978071212768555,3.26,3.6,-0.4,4.87
4.90976095199585,4.0,4.52,0.51,6.05
4.917778968811035,4.57,5.57,1.18,7.3
4.9277119636535645,4.73,6.54,1.62,8.23
4.940067291259766,5.04,7.61,2.29,9.41
4.94778299331665,5.17,8.66,2.21,10.32
4.9596781730651855,5.47,9.37,1.58,10.96
4.967820167541504,6.34,9.67,0.92,11.59
4.977715015411377,7.55,9.78,0.62,12.37
4.990042209625244,8.75,10.25,0.91,13.5
4.997871160507202,10.11,11.22,1.0,15.13
5.010296106338501,11.26,12.01,-1.29,16.51
5.0188679695129395,11.95,13.37,-5.87,18.86
5.028837203979492,13.08,15.96,-7.62,21.99
5.0406670570373535,15.73,17.6,-5.02,24.13
5.048375129699707,18.72,17.77,-2.86,25.96
5.0595691204071045,19.17,16.42,-4.74,25.68
5.067835092544556,13.05,11.4,0.9,17.35
5.077730178833008,8.54,9.39,0.9,12.72
5.090104103088379,7.69,7.56,-6.66,12.67
5.097864151000977,5.55,3.42,-6.23,9.01
5.109872102737427,3.46,0.84,-4.03,5.37
5.117904186248779,1.94,-0.83,-6.0,6.36
5.127910137176514,1.22,-2.82,-3.69,4.8
5.1401190757751465,2.86,-3.61,-0.19,4.6
5.147950172424316,4.99,-4.46,1.32,6.82
5.159927129745483,6.73,-5.49,2.02,8.91
5.167976140975952,8.41,-6.11,2.44,10.67
5.1779632568359375,9.67,-5.83,0.92,11.32
5.190150260925293,9.96,-5.02,0.39,11.16
5.197941303253174,8.94,-4.18,0.26,9.87
5.210068225860596,6.55,-3.11,0.92,7.3
5.2179811000823975,5.21,-2.7,1.45,6.04
5.2279651165008545,5.41,-2.63,1.1,6.11
5.240117073059082,5.72,-2.35,1.45,6.35
5.2479071617126465,5.17,-2.03,1.72,5.81
5.259905099868774,4.02,-1.83,1.78,4.76
5.268022060394287,2.72,-1.5,1.85,3.61
5.27793025970459,1.67,-0.7,2.01,2.7
5.290187120437622,0.6,0.2,2.07,2.16
5.2980780601501465,-0.63,0.92,1.71,2.04
5.309875965118408,-1.89,1.73,1.08,2.78
5.317982196807861,-3.23,2.52,1.11,4.24
5.328429222106934,-4.0,3.0,0.94,5.08
5.340176105499268,-3.9,3.45,-0.06,5.2
5.348039150238037,-4.01,4.0,-0.74,5.71
5.35994815826416,-4.75,4.93,-0.88,6.9
5.3680620193481445,-5.61,6.11,-1.37,8.4
5.378349304199219,-6.95,7.03,-1.18,9.95
5.390258073806763,-8.65,7.22,-0.4,11.27
5.398033142089844,-10.68,7.28,-1.17,12.97
5.409962177276611,-12.26,8.05,-3.92,15.18
5.418037176132202,-13.34,8.76,-7.29,17.54
5.428447246551514,-15.22,8.31,-8.55,19.33
5.440276145935059,-16.92,6.31,-10.91,21.09
5.448117256164551,-18.31,3.64,-14.05,23.36
5.459973096847534,-21.46,0.71,-11.76,24.48
5.468748092651367,-24.32,-2.04,-9.5,26.18
5.478575229644775,-26.21,-4.48,-6.96,27.48
5.492828130722046,-25.92,-5.29,-2.47,26.56
5.499186038970947,-12.19,3.69,9.23,15.72
5.510516166687012,1.32,11.57,27.27,29.65
5.518862247467041,-2.6,12.08,-3.35,12.8
5.528404235839844,-6.48,14.51,-18.16,24.13
5.540300130844116,-2.77,8.5,-5.2,10.34
5.5481181144714355,-0.66,2.6,-5.96,6.53
5.559974193572998,-1.38,-1.18,0.08,1.81
5.568098068237305,-7.21,-1.6,-0.28,7.39
5.5784430503845215,-9.77,-3.38,-4.7,11.35
5.590342998504639,-12.41,-5.6,-2.08,13.77
5.598194122314453,-13.06,-6.73,2.62,14.92
5.6099841594696045,-9.32,-4.94,0.24,10.55
5.6181981563568115,-5.34,-1.41,-0.97,5.6
5.628460168838501,-3.43,0.36,1.08,3.61
5.640427112579346,-0.81,0.93,2.42,2.71
5.648180961608887,1.51,1.59,3.26,3.92
5.660099983215332,2.73,2.08,-0.2,3.43
5.668172121047974,3.21,1.57,-1.91,4.05
5.678431034088135,3.08,0.71,-0.91,3.28
5.690388202667236,-1.34,0.18,-1.24,1.83
5.698214054107666,-5.55,0.21,-1.28,5.69
5.710085153579712,-3.35,0.43,1.27,3.6
5.718204975128174,0.44,1.03,1.76,2.08
5.728685140609741,2.19,1.43,0.23,2.62
5.74058198928833,2.17,1.68,-0.37,2.76
5.74832010269165,1.76,1.45,-0.47,2.32
5.760097980499268,1.01,0.53,-1.69,2.03
5.768229961395264,0.97,-0.12,-1.05,1.43
5.778486251831055,1.01,-0.11,-1.16,1.54
5.790546178817749,1.27,0.33,-1.35,1.88
5.798367023468018,1.8,0.26,-1.6,2.42
5.810235977172852,1.47,-0.11,-1.84,2.35
5.818174123764038,0.69,-0.21,-1.36,1.53
5.828756093978882,0.12,-0.08,-0.46,0.48
5.840528964996338,-0.08,0.16,0.08,0.19
5.848295211791992,-0.38,-0.01,0.01,0.38
5.860202074050903,-0.97,-0.24,0.21,1.02
5.868249177932739,-0.95,0.22,1.17,1.52
5.878684043884277,-0.75,0.98,1.2,1.72
5.890736103057861,-0.34,2.03,1.02,2.29
5.898319244384766,0.34,3.06,0.89,3.2
5.910336017608643,0.81,4.06,0.79,4.21
5.918341159820557,1.06,5.05,-0.29,5.16
5.928670167922974,1.39,6.4,1.33,6.68
5.9406609535217285,2.16,7.98,2.71,8.7
5.948381185531616,3.02,9.4,2.5,10.18
5.960283279418945,4.08,10.62,1.88,11.53
5.968252182006836,5.73,11.6,1.36,13.0
5.978631973266602,7.41,12.59,0.34,14.61
5.991279125213623,8.74,14.12,-1.89,16.71
5.998869180679321,10.21,15.83,-3.56,19.17
6.011108160018921,12.63,16.8,-5.18,21.64
6.018845081329346,15.63,16.4,-6.8,23.65
6.030251979827881,19.75,16.84,-4.28,26.3
6.040890216827393,22.55,15.72,-1.8,27.54
6.048356056213379,16.44,12.95,-3.91,21.29
6.060190200805664,9.77,11.81,-7.12,16.9
6.068307161331177,7.65,10.59,-7.84,15.23
6.078487157821655,5.16,7.83,-4.47,10.38
6.09066104888916,4.67,4.59,-1.71,6.76
6.098383188247681,6.08,2.22,-1.0,6.54
6.110429286956787,8.76,1.01,-2.57,9.18
6.118450164794922,11.11,-1.29,0.35,11.19
6.128509044647217,12.29,-3.43,1.79,12.88
6.14072322845459,12.07,-4.32,2.31,13.02
6.148425102233887,11.2,-3.53,3.53,12.26
6.160449028015137,9.56,-2.25,3.26,10.34
6.168344020843506,8.32,-1.73,1.31,8.59
6.178467273712158,7.85,-1.91,0.46,8.09
6.190590143203735,8.19,-2.1,0.6,8.47
6.198467254638672,7.82,-1.9,0.33,8.05
6.210376262664795,6.45,-1.48,0.75,6.65
6.218368053436279,4.99,-0.61,1.17,5.16
6.228518009185791,3.26,0.58,1.91,3.82
6.240661144256592,1.36,1.59,2.57,3.31
6.248583078384399,-0.17,2.21,2.86,3.61
6.260517120361328,-1.52,2.39,3.47,4.47
6.268408298492432,-2.72,1.98,3.38,4.76
6.278424263000488,-3.69,1.19,2.86,4.81
6.2908430099487305,-3.91,0.63,2.22,4.54
6.29853630065918,-1.77,0.95,1.45,2.47
6.310800075531006,0.11,2.05,0.95,2.26
6.318443298339844,-0.08,3.17,0.81,3.27
6.330132961273193,-1.33,3.92,-0.21,4.14
6.3406081199646,-3.22,4.14,-0.45,5.26
6.348546981811523,-4.81,3.93,0.44,6.22
6.36072301864624,-6.54,3.81,-0.35,7.57
6.368499279022217,-8.18,3.92,-1.21,9.15
6.380058288574219,-9.6,4.17,-2.48,10.75
6.390764236450195,-11.02,4.41,-3.15,12.28
6.398626089096069,-12.59,4.75,-1.7,13.56
6.410827159881592,-13.45,5.17,-3.11,14.74
6.418583154678345,-13.92,4.81,-3.68,15.18
6.430116176605225,-14.32,3.57,-4.17,15.33
6.440770149230957,-14.87,2.23,-4.72,15.75
6.448543071746826,-15.92,1.14,-4.93,16.7
6.46083927154541,-16.86,0.39,-5.82,17.84
6.468507289886475,-17.33,-0.12,-5.36,18.14
6.479916095733643,-17.41,-0.81,-4.25,17.93
6.490813255310059,-16.18,-1.44,-3.23,16.56
6.498650074005127,-13.99,-1.0,-2.97,14.33
6.510956287384033,-13.05,1.67,-1.67,13.26
6.518645286560059,-9.18,6.11,-3.91,11.7
6.5300071239471436,3.27,15.6,17.63,23.76
6.541332244873047,8.05,22.26,31.47,39.37
6.548586130142212,-4.28,20.8,-23.74,31.85
6.561495304107666,-7.23,12.53,-15.0,20.83
6.569958209991455,-3.05,1.03,1.87,3.72
6.580626010894775,-1.81,-7.47,5.78,9.61
6.593015193939209,-5.54,-10.72,-9.1,15.11
6.599852085113525,-9.68,-11.39,-9.02,17.45
6.611289978027344,-12.43,-10.48,0.28,16.26
6.619776248931885,-12.76,-4.95,2.17,13.85
6.630712032318115,-12.91,2.39,4.09,13.75
6.643170118331909,-11.32,5.47,-4.41,13.32
6.649245262145996,-4.44,1.81,-2.59,5.44
6.661314010620117,0.92,-0.14,2.68,2.83
6.670099258422852,2.5,-0.15,1.94,3.16
6.68043327331543,3.49,0.12,0.8,3.58
6.693160057067871,2.58,1.21,-1.26,3.11
6.699855089187622,-3.54,0.84,-1.87,4.09
6.7113800048828125,-7.53,-0.41,-1.13,7.62
6.71986722946167,-6.56,-0.88,0.77,6.66
6.730553150177002,-2.6,0.14,0.97,2.77
6.743336200714111,0.84,1.02,0.33,1.36
6.749267101287842,2.08,1.58,0.66,2.69
6.761393070220947,2.18,1.52,-0.07,2.65
6.7702412605285645,2.53,1.06,-0.78,2.85
6.78049898147583,2.19,0.52,-0.23,2.26
6.793208122253418,0.66,0.5,0.41,0.92
6.799774169921875,0.55,1.21,1.23,1.81
6.811552047729492,0.9,1.37,0.69,1.77
6.819873094558716,1.19,0.95,0.44,1.58
6.830432176589966,1.66,0.42,0.39,1.75
6.843263149261475,1.99,0.02,-0.2,2.0
6.849325180053711,1.88,-0.33,-0.62,2.0
6.861474990844727,1.34,-0.68,-0.57,1.6
6.870207071304321,1.12,-0.67,-0.22,1.32
6.880331993103027,0.99,-0.45,-0.1,1.09
6.893259048461914,1.13,-0.23,0.04,1.15
6.899871110916138,1.35,0.17,0.15,1.36
6.911341190338135,1.46,0.73,0.22,1.64
6.919942140579224,1.97,1.21,0.41,2.34
6.930392265319824,2.59,1.57,0.21,3.03
6.943767070770264,2.93,2.05,-0.09,3.57
6.94931697845459,3.21,2.82,-0.09,4.27
6.961647033691406,2.87,3.38,0.09,4.43
6.970329284667969,2.85,4.17,0.8,5.11
6.980539083480835,2.8,4.77,0.94,5.61
6.993155002593994,2.89,5.24,1.34,6.13
6.99989128112793,3.33,5.71,1.46,6.76
7.011527061462402,3.56,6.35,-0.04,7.27
7.019998073577881,4.31,7.27,-1.04,8.51
7.030173301696777,5.24,8.44,-1.8,10.09
7.043816089630127,6.13,9.59,-2.0,11.55
7.049466133117676,7.2,10.45,-1.68,12.8
7.0615761280059814,8.23,11.05,-1.83,13.89
7.070396184921265,9.68,11.93,-1.98,15.49
7.079346179962158,11.25,12.76,-2.93,17.26
7.091804027557373,12.84,13.91,-4.3,19.41
7.10001015663147,14.6,15.68,-4.01,21.79
7.111800193786621,15.92,17.03,-5.06,23.85
7.118879079818726,17.15,16.76,-5.66,24.63
7.129448175430298,16.17,14.86,-3.19,22.19
7.141141176223755,10.63,10.32,0.91,14.84
7.1487321853637695,7.82,8.63,-1.21,11.7
7.161159038543701,7.63,7.17,-7.33,12.78
7.169033050537109,5.99,2.56,-4.66,8.0
7.179159164428711,4.49,-0.24,-3.4,5.63
7.191139221191406,4.19,-1.85,-5.19,6.92
7.19889497756958,4.53,-3.36,-2.26,6.07
7.211058139801025,6.15,-4.23,0.47,7.47
7.218894004821777,7.41,-5.1,1.7,9.15
7.229254245758057,8.26,-5.98,2.95,10.61
7.241124153137207,9.56,-5.95,1.69,11.38
7.24908709526062,9.79,-4.68,0.32,10.85
7.261177062988281,7.93,-3.14,0.21,8.53
7.26887321472168,5.83,-2.03,1.21,6.29
7.2794411182403564,5.41,-1.66,2.59,6.22
7.291423082351685,5.98,-1.31,2.64,6.66
7.29908013343811,6.03,-0.8,2.85,6.71
7.311328172683716,5.67,-0.53,3.13,6.49
7.318929195404053,4.59,-0.53,3.26,5.65
7.329259157180786,3.19,-0.16,3.58,4.79
7.341336250305176,1.96,0.75,3.75,4.29
7.3490190505981445,0.58,1.61,3.37,3.77
7.361354112625122,-0.89,2.11,2.81,3.62
7.3690972328186035,-1.92,2.49,2.26,3.87
7.379164218902588,-2.28,2.87,1.69,4.03
7.391222953796387,-1.48,2.97,1.94,3.84
7.399108171463013,-0.74,3.23,2.29,4.02
7.4113450050354,-1.7,4.05,1.14,4.53
7.419134140014648,-3.63,4.81,-0.88,6.08
7.429121971130371,-4.76,5.27,-1.07,7.18
7.441169261932373,-6.37,6.09,-0.51,8.82
7.449120998382568,-8.11,6.97,-1.05,10.74
7.461308002471924,-9.89,7.69,-1.75,12.64
7.4690470695495605,-11.62,7.74,-3.28,14.34
7.479074001312256,-13.24,7.33,-4.8,15.87
7.4912872314453125,-14.59,6.39,-5.26,16.77
7.499096155166626,-16.31,4.76,-4.56,17.59
7.511359214782715,-17.58,3.29,-6.7,19.09
7.519154071807861,-18.28,2.23,-8.4,20.24
7.529081106185913,-19.49,1.1,-7.83,21.03
7.541169166564941,-20.58,-0.16,-7.83,22.01
7.549073219299316,-21.28,-1.61,-7.37,22.57
7.561366081237793,-21.19,-3.47,-6.22,22.35
7.5690600872039795,-18.74,-3.43,-4.76,19.63
7.579037189483643,-13.35,1.52,-0.2,13.43
7.591179132461548,-4.94,8.83,9.06,13.58
7.6000752449035645,4.71,13.07,28.85,32.02
7.6121110916137695,-0.27,15.86,-3.82,16.31
7.620343208312988,-4.37,17.58,-21.04,27.76
7.629796028137207,-0.21,9.33,-5.94,11.06
7.643896102905273,0.77,1.44,-4.75,5.02
7.649754047393799,-1.83,-1.85,-5.13,5.75
7.661903142929077,-7.21,-4.22,-1.06,8.42
7.670677185058594,-9.59,-6.34,-2.83,11.83
7.6797261238098145,-11.12,-5.58,-6.29,13.94
7.6942009925842285,-14.31,-3.1,2.57,14.86
7.7002551555633545,-12.36,-1.1,-0.31,12.41
7.7118401527404785,-5.2,0.07,-0.84,5.26
7.720324993133545,-1.24,0.38,2.33,2.66
7.72979211807251,0.39,1.03,1.69,2.01
7.744016170501709,0.46,1.24,0.69,1.49
7.749751091003418,0.1,0.95,0.01,0.95
7.762338161468506,-1.35,0.39,0.07,1.4
7.770833969116211,-2.99,0.36,-0.98,3.16
7.779788017272949,-4.43,0.3,-2.01,4.87
7.794013023376465,-4.07,0.21,-1.63,4.38
7.800312042236328,-1.73,0.38,-0.19,1.78
7.81200909614563,-0.16,0.7,0.47,0.85
7.820397138595581,1.22,0.99,0.31,1.6
7.829667091369629,2.26,1.01,-0.21,2.48
7.844127178192139,3.17,0.78,-0.74,3.34
7.849890232086182,3.9,0.54,-0.9,4.03
7.861882209777832,2.82,0.14,-0.51,2.86
7.8706512451171875,0.06,-0.37,-0.26,0.45
7.87966513633728,0.73,-0.35,-0.34,0.87
7.894097089767456,1.89,-0.41,-0.31,1.95
7.900263071060181,2.01,-0.54,-0.24,2.09
7.911952972412109,1.84,-0.45,-0.4,1.93
7.920467138290405,1.33,-0.13,-0.28,1.36
7.929758071899414,0.96,0.08,0.18,0.98
7.94415807723999,0.86,0.1,0.53,1.01
7.949856281280518,1.35,0.17,0.98,1.67
7.9620680809021,2.12,0.42,0.95,2.36
7.9707560539245605,2.6,0.86,0.51,2.78
7.9797282218933105,2.36,1.22,0.05,2.65
7.993984222412109,1.54,1.54,-0.19,2.18
8.000370025634766,0.87,2.01,-0.41,2.22
8.011925220489502,1.12,2.55,-0.33,2.8
8.020349979400635,1.89,2.68,-0.45,3.31
8.029938220977783,2.44,2.8,-0.79,3.79
8.043889045715332,3.21,3.67,-0.53,4.9
8.049731254577637,3.59,4.76,0.02,5.96
8.061836242675781,3.98,5.8,0.87,7.08
8.070768117904663,4.61,6.66,2.98,8.63
8.079880237579346,5.18,7.25,3.79,9.68
8.09401798248291,5.48,7.57,1.82,9.52
8.100250244140625,5.87,7.6,-0.19,9.6
8.111942291259766,6.41,7.81,-2.08,10.31
8.120466232299805,6.96,8.7,-3.08,11.55
8.129873275756836,7.79,10.13,-2.61,13.04
8.14470911026001,9.25,11.44,-2.23,14.87
8.149436950683594,11.15,12.02,-2.54,16.59
8.161410093307495,12.83,12.15,-4.08,18.13
8.169358253479004,14.45,12.75,-4.22,19.72
8.179417133331299,15.33,14.23,-3.57,21.21
8.191519260406494,15.95,14.91,-5.52,22.52
8.200372219085693,14.59,14.71,-4.92,21.29
8.212055206298828,9.48,11.82,-1.14,15.19
8.2206130027771,6.51,8.38,1.11,10.66
8.229865074157715,6.4,6.71,-2.99,9.74
8.244240283966064,6.43,4.01,-5.29,9.24
8.249942302703857,5.17,0.57,-2.8,5.9
8.262078285217285,4.27,-1.03,-4.47,6.26
8.270767211914062,3.89,-2.56,-6.48,7.97
8.27994418144226,4.44,-3.75,-3.24,6.65
8.294097185134888,6.68,-4.2,-0.79,7.93
8.300480127334595,8.53,-4.71,0.17,9.74
8.312044143676758,10.51,-5.12,2.28,11.91
8.32065200805664,12.01,-5.0,2.41,13.23
8.330077171325684,11.81,-4.33,1.15,12.63
8.344313144683838,8.83,-3.33,0.99,9.48
8.350100994110107,5.78,-2.45,0.8,6.32
8.362277030944824,4.17,-1.41,1.3,4.58
8.371155261993408,4.08,-0.8,1.88,4.56
8.380074977874756,5.05,-1.74,1.41,5.52
8.394452095031738,5.39,-2.69,1.45,6.19
8.400609970092773,4.92,-2.39,2.0,5.82
8.41230297088623,4.17,-1.45,2.61,5.12
8.420835018157959,3.32,-0.42,2.86,4.4
8.43014907836914,2.33,0.54,3.0,3.83
8.444477081298828,0.81,1.44,2.72,3.18
8.450098037719727,-0.62,2.26,2.08,3.13
8.462233066558838,-1.86,2.96,1.11,3.66
8.471099138259888,-2.63,3.42,0.2,4.31
8.48036813735962,-2.92,3.78,0.08,4.77
8.494347095489502,-2.92,4.26,0.08,5.16
8.500851154327393,-3.25,4.87,-1.1,5.95
8.512401103973389,-4.01,5.8,-1.74,7.26
8.520655155181885,-5.15,6.91,-1.1,8.68
8.530188083648682,-6.46,7.58,-1.43,10.06
8.544620037078857,-7.93,7.54,-2.49,11.22
8.550121307373047,-9.63,7.04,-3.31,12.37
8.562231063842773,-11.14,6.69,-4.76,13.83
8.571237087249756,-12.6,6.83,-5.95,15.51
8.580399990081787,-14.05,6.28,-5.31,16.27
8.59433126449585,-15.13,4.68,-7.26,17.42
8.600826263427734,-16.76,3.19,-9.38,19.46
8.612068176269531,-18.18,2.07,-8.57,20.2
8.620721101760864,-19.61,0.69,-6.07,20.53
8.630311012268066,-20.36,-0.77,-6.87,21.5
8.6444411277771,-20.61,-2.26,-6.02,21.58
8.650150299072266,-19.24,-3.21,-4.22,19.95
8.662164211273193,-13.69,-0.14,-0.68,13.7
8.671247005462646,-7.85,5.1,3.71,10.06
8.680495262145996,1.06,11.54,21.02,24.0
8.692759990692139,6.15,15.06,27.0,31.52
8.699734210968018,-2.63,17.01,-17.51,24.55
8.711503982543945,-2.66,14.64,-14.13,20.51
8.719788074493408,-0.69,2.98,-1.28,3.31
8.729844093322754,-1.04,-2.18,-8.7,9.02
8.74223804473877,-2.97,-4.66,-12.88,14.01
8.749763011932373,-6.71,-7.46,3.14,10.51
8.761462211608887,-8.9,-6.71,-2.31,11.38
8.769727230072021,-11.89,-2.8,-10.13,15.86
8.779694080352783,-17.75,0.27,6.28,18.83
8.792104244232178,-17.38,-0.17,4.21,17.88
8.79969596862793,-10.17,-1.56,-1.83,10.45
8.811392307281494,-2.44,-1.09,-0.56,2.73
8.819732189178467,0.32,0.48,1.48,1.58
8.829805135726929,2.62,1.79,3.26,4.54
8.842393159866333,4.61,2.33,0.73,5.21
8.849850177764893,4.76,2.0,-3.83,6.42
8.861472129821777,-0.25,1.0,-3.8,3.93
8.869794130325317,-7.29,-0.05,-0.55,7.31
8.879847049713135,-7.72,0.0,1.68,7.9
8.892336130142212,-2.72,0.98,1.8,3.4
8.899782180786133,1.05,1.73,1.24,2.37
8.911620140075684,2.87,2.09,0.49,3.58
8.919884204864502,3.48,1.83,0.66,3.98
8.929933071136475,3.81,0.95,0.71,3.99
8.94231915473938,3.7,0.09,-0.18,3.7
8.949885129928589,2.8,-0.3,-0.52,2.86
8.961749076843262,0.75,-0.22,-0.55,0.95
8.969849109649658,0.46,-0.01,-1.22,1.3
8.979896068572998,1.25,-0.03,-1.38,1.86
8.992485046386719,2.18,-0.27,-1.13,2.47
9.000019073486328,2.93,-0.67,-1.17,3.22
9.011713027954102,2.88,-0.82,-0.87,3.11
9.020050048828125,2.41,-0.46,-0.02,2.45
9.029966115951538,1.86,-0.06,0.39,1.9
9.04239797592163,1.41,0.01,0.42,1.47
9.04993724822998,1.3,0.13,0.59,1.43
9.061714172363281,1.21,0.45,0.6,1.42
9.070033073425293,1.18,0.89,0.37,1.52
9.079861164093018,1.39,1.48,0.22,2.04
9.09247612953186,2.08,2.21,0.31,3.05
9.099879264831543,2.97,3.0,0.11,4.22
9.11158800125122,3.84,3.82,0.0,5.41
9.119883060455322,4.63,4.65,0.16,6.56
9.129902124404907,4.87,5.28,0.2,7.18
9.142451286315918,4.82,5.79,0.66,7.56
9.150076150894165,5.16,6.78,1.01,8.57
9.161989212036133,5.61,7.54,0.68,9.42
9.170079231262207,6.06,8.41,0.28,10.36
9.180058002471924,6.53,9.59,-0.24,11.6
9.192479133605957,7.43,11.22,-0.38,13.46
9.200695037841797,8.81,13.17,0.07,15.84
9.211934089660645,10.52,14.46,0.02,17.88
9.220808982849121,12.09,14.81,-3.03,19.35
9.230781078338623,13.68,15.48,-6.33,21.6
9.243349075317383,15.65,17.95,-6.8,24.76
9.250396251678467,17.99,18.58,-5.65,26.47
9.261933088302612,18.82,16.45,-5.58,25.61
9.270045280456543,13.11,11.6,-3.5,17.85
9.280049085617065,7.9,8.8,2.28,12.04
9.292662143707275,6.86,7.58,-0.68,10.24
9.300059080123901,6.17,5.2,-5.44,9.73
9.311905145645142,3.97,2.0,-2.39,5.04
9.320048093795776,2.2,0.38,-2.8,3.58
9.3301420211792,0.45,-1.53,-5.59,5.81
9.3425931930542,-0.02,-3.58,-3.08,4.72
9.350128173828125,1.16,-4.77,0.56,4.94
9.361870288848877,3.22,-5.5,1.53,6.55
9.370020151138306,5.39,-5.9,1.45,8.12
9.380129098892212,8.24,-5.64,1.87,10.15
9.392521142959595,10.38,-4.93,1.64,11.6
9.400037288665771,11.44,-3.96,1.18,12.16
9.41183614730835,11.47,-2.83,0.93,11.85
9.420066118240356,10.26,-1.96,0.95,10.48
9.430164098739624,6.46,-1.57,1.62,6.84
9.442622184753418,4.01,-1.58,1.69,4.62
9.450115203857422,3.37,-1.78,1.87,4.24
9.461966037750244,3.45,-1.86,2.31,4.54
9.470147132873535,3.51,-1.61,3.0,4.89
9.480270147323608,3.03,-1.32,3.25,4.63
9.492690086364746,2.15,-1.05,3.04,3.86
9.500173091888428,0.98,-0.72,2.58,2.85
9.512153148651123,-0.18,-0.29,2.17,2.19
9.520243167877197,-1.53,0.43,1.4,2.11
9.530192136764526,-2.99,1.11,0.54,3.23
9.54273009300232,-4.36,1.82,-0.3,4.73
9.55019211769104,-5.23,2.59,-0.61,5.86
9.56217622756958,-5.78,3.6,-0.45,6.82
9.570295095443726,-6.25,4.41,-1.23,7.74
9.5802321434021,-6.53,5.36,-1.14,8.52
9.592867136001587,-5.8,6.19,0.83,8.52
9.600288152694702,-4.94,6.23,1.32,8.05
9.612261295318604,-6.46,6.21,0.96,9.01
9.620227098464966,-9.23,6.08,-0.38,11.05
9.630259037017822,-11.06,6.57,-2.06,13.02
9.642822265625,-12.93,7.38,-1.66,14.98
9.650300979614258,-14.2,6.73,-1.88,15.82
9.66230821609497,-14.59,4.61,-8.59,17.54
9.6703519821167,-15.86,2.71,-11.23,19.62
9.680407047271729,-17.52,1.48,-8.8,19.66
9.692862033843994,-19.04,0.34,-7.42,20.43
9.700275182723999,-20.3,-0.72,-8.63,22.07
9.712291240692139,-21.48,-2.03,-7.77,22.93
9.720331192016602,-20.91,-2.27,-4.08,21.42
9.730335235595703,-10.67,3.22,1.38,11.23
9.743224143981934,3.61,11.16,26.76,29.21
9.751136302947998,3.81,14.65,17.45,23.1
9.762377262115479,-5.58,18.79,-25.05,31.8
9.770372152328491,-2.4,16.42,-12.73,20.91
9.780333042144775,1.66,5.56,-2.68,6.39
9.792887210845947,1.94,-0.62,-4.05,4.53
9.800332069396973,-1.28,-4.47,-4.29,6.32
9.812316179275513,-5.53,-6.81,0.21,8.77
9.820317268371582,-7.93,-7.2,-5.08,11.85
9.83043909072876,-11.68,-5.08,-3.39,13.18
9.842897176742554,-16.84,0.93,4.18,17.37
9.850353240966797,-16.83,0.94,-0.43,16.86
9.862395286560059,-11.18,-2.96,-1.42,11.65
9.870403289794922,-3.57,-2.65,0.03,4.44
9.880375146865845,-0.38,-0.64,1.59,1.75
9.893028259277344,1.17,1.31,1.08,2.06
9.90038013458252,2.31,2.78,-0.13,3.61
9.912359237670898,3.26,2.85,-0.77,4.39
9.920538187026978,2.75,1.42,-0.33,3.11
9.930461168289185,-1.38,0.21,-2.09,2.51
9.942965030670166,-5.26,-0.29,-2.43,5.8
9.950478076934814,-5.97,-0.28,-0.8,6.02
9.962290287017822,-3.55,0.58,0.3,3.6
9.970376968383789,-0.48,1.3,0.97,1.69
9.980448246002197,2.24,1.14,0.76,2.62
9.993051052093506,2.6,0.51,0.38,2.67
10.000470161437988,3.09,0.46,-0.31,3.13
10.012384176254272,4.15,0.9,-0.56,4.28
10.02039623260498,3.96,1.42,-0.65,4.25
10.03044605255127,1.96,1.14,0.11,2.27
10.042991161346436,0.92,0.53,-0.28,1.09
10.050558090209961,1.29,0.21,-0.15,1.31
10.062483072280884,1.38,-0.33,-0.33,1.45
10.07044506072998,1.51,-0.67,-0.36,1.69
10.080560207366943,2.01,-0.78,-0.49,2.21
10.093013286590576,2.08,-0.76,-0.32,2.23
10.100522994995117,2.02,-0.74,0.03,2.15
10.112370014190674,1.7,-1.01,0.2,1.98
10.120558261871338,1.56,-1.1,-0.19,1.91
10.130532264709473,1.71,-0.49,-0.45,1.83
10.142986297607422,1.94,0.49,-0.49,2.06
10.150437116622925,1.89,1.12,-0.4,2.23
10.162518978118896,1.67,1.56,-0.47,2.33
10.17053508758545,1.73,2.23,-0.11,2.82
10.180495262145996,1.93,2.96,0.58,3.58
10.192982196807861,2.41,3.81,0.53,4.53
10.20048713684082,3.05,4.52,0.56,5.48
10.212444305419922,3.67,5.06,0.68,6.28
10.220568180084229,4.12,5.77,0.7,7.12
10.230622291564941,4.47,6.64,1.52,8.14
10.243151187896729,4.67,7.55,1.72,9.04
10.250534057617188,5.06,8.14,0.85,9.62
10.262594223022461,5.56,8.38,-0.58,10.07
10.27076005935669,6.28,8.91,-1.42,10.99
10.280704975128174,7.02,10.16,-1.83,12.48
10.29372501373291,7.84,12.11,-1.87,14.54
10.301460266113281,9.44,14.18,-0.76,17.05
10.313189029693604,11.07,14.79,-2.85,18.69
10.32096529006958,12.59,14.52,-6.6,20.31
10.33076810836792,14.5,15.34,-7.22,22.3
10.34287405014038,16.76,15.62,-6.04,23.69
10.35042428970337,18.6,14.87,-4.86,24.3
10.362305164337158,16.86,12.35,-4.65,21.41
10.370521068572998,10.25,9.26,0.42,13.81
10.380506038665771,7.4,7.96,1.41,10.95
10.39291000366211,6.97,6.58,-5.19,10.9
10.400578022003174,5.33,3.42,-5.34,8.28
10.41240930557251,3.19,0.86,-2.47,4.12
10.420729160308838,1.87,-0.6,-6.17,6.47
10.430685997009277,0.52,-2.86,-5.53,6.24
10.443130016326904,1.06,-4.26,-1.32,4.58
10.450623989105225,2.63,-5.06,0.49,5.72
10.462812185287476,4.5,-5.59,-0.1,7.17
10.470773220062256,6.52,-5.97,0.43,8.85
10.480924129486084,9.0,-5.82,1.53,10.82
10.493245124816895,10.12,-5.05,0.75,11.33
10.50069522857666,9.78,-4.21,-0.5,10.65
10.512525081634521,7.38,-3.76,-0.98,8.34
10.520663261413574,4.55,-3.49,0.14,5.73
10.530755043029785,3.65,-3.42,0.74,5.05
10.543169021606445,4.16,-3.44,0.62,5.43
10.550719261169434,4.58,-3.25,0.92,5.69
10.5625741481781,4.44,-2.85,1.48,5.47
10.57069206237793,3.88,-2.46,1.69,4.89
10.580742120742798,2.92,-1.91,1.36,3.74
10.59336805343628,1.62,-1.16,1.06,2.25
10.60073709487915,0.37,-0.34,1.0,1.11
10.612764120101929,-0.83,0.64,0.89,1.37
10.620765209197998,-2.02,1.74,0.28,2.68
10.630804061889648,-3.3,2.49,-0.1,4.13
10.64335012435913,-4.4,2.75,-0.54,5.21
10.650801181793213,-5.24,2.93,-0.56,6.02
10.662682056427002,-5.73,3.42,-1.55,6.85
10.670773983001709,-6.33,4.3,-1.66,7.83
10.680826187133789,-6.6,5.24,-0.82,8.46
10.693318128585815,-6.82,5.82,-1.1,9.03
10.70083212852478,-7.75,6.26,-1.74,10.11
10.712670087814331,-9.2,6.77,-2.23,11.63
10.720914125442505,-10.93,7.1,-3.15,13.4
10.730900287628174,-12.63,7.39,-3.66,15.08
10.743277072906494,-14.31,7.33,-2.06,16.2
10.750789165496826,-15.64,6.06,-3.49,17.13
10.762728214263916,-16.61,3.67,-5.9,18.0
10.770820140838623,-17.37,1.68,-6.17,18.5
10.78085207939148,-18.37,0.46,-4.06,18.81
10.793337106704712,-19.02,-0.59,-3.5,19.34
10.80085015296936,-19.33,-0.87,-3.28,19.62
10.812679290771484,-18.28,0.5,-0.27,18.28
10.82082223892212,-10.71,4.93,1.69,11.91
10.831457138061523,1.42,11.36,18.89,22.08
10.843315124511719,6.12,15.43,29.26,33.64
10.850880146026611,-2.8,17.49,-16.46,24.17
10.86323595046997,-2.27,14.34,-15.74,21.41
10.87234616279602,1.11,3.96,-4.41,6.03
10.881604194641113,1.6,-2.54,-6.57,7.22
10.895716190338135,-0.36,-6.43,-8.51,10.67
10.901953220367432,-5.0,-7.95,-1.77,9.55
10.913247108459473,-8.02,-6.36,-5.08,11.42
10.922008991241455,-11.04,-3.62,-6.16,13.15
10.931562185287476,-17.99,1.68,6.92,19.34
10.945671081542969,-19.93,1.78,3.93,20.39
10.95145320892334,-16.11,-3.45,-0.94,16.5
10.963267087936401,-6.68,-3.52,-0.55,7.57
10.972463130950928,-1.06,-0.32,0.29,1.14
10.98169207572937,0.22,1.38,0.86,1.64
10.995666027069092,2.25,2.22,1.08,3.34
11.001999139785767,4.28,2.49,-0.59,4.98
11.013273239135742,4.87,1.92,-2.88,5.97
11.022128105163574,1.71,0.59,-3.34,3.79
11.031665086746216,-4.71,-0.67,-1.02,4.86
11.045583248138428,-5.22,0.0,0.64,5.25
11.051635265350342,-1.02,1.04,1.59,2.15
11.063435077667236,2.3,1.14,1.23,2.84
11.072469234466553,2.87,0.92,0.1,3.01
11.081659078598022,3.04,0.7,-0.89,3.24
11.095555305480957,3.41,0.71,-0.66,3.54
11.102144241333008,2.22,0.43,0.02,2.26
11.113353252410889,0.12,0.26,0.06,0.29
11.122169971466064,0.23,0.59,-0.14,0.64
11.131700992584229,0.97,0.62,-0.41,1.22
11.145565032958984,1.86,0.13,-0.48,1.92
11.151654243469238,2.92,-0.55,-1.0,3.13
11.163461208343506,3.39,-1.02,-1.2,3.73
11.172567129135132,3.28,-1.15,-0.81,3.56
11.181838035583496,2.36,-1.2,-0.21,2.65
11.19535517692566,1.2,-1.16,0.04,1.66
11.20224118232727,0.73,-0.82,0.32,1.14
11.213366031646729,1.09,-0.38,0.7,1.35
11.222263097763062,0.82,-0.2,0.06,0.84
11.23183298110962,0.6,-0.07,0.09,0.61
11.245471000671387,0.48,0.08,0.23,0.53
11.25168228149414,0.84,0.37,-0.34,0.97
11.263458251953125,1.29,0.96,-0.57,1.7
11.272548198699951,1.65,1.73,0.19,2.39
11.281854152679443,1.73,2.37,0.55,2.98
11.295438289642334,1.38,2.76,0.91,3.21
11.30222225189209,1.68,3.57,1.15,4.1
11.313661098480225,2.64,4.65,2.26,5.8
11.322251081466675,3.41,5.51,2.93,7.11
11.33169412612915,3.67,6.76,3.17,8.31
11.345540046691895,3.89,8.27,3.84,9.91
11.351814270019531,4.01,9.65,4.61,11.42
11.363576173782349,4.69,12.05,5.51,14.05
11.372312068939209,5.85,14.93,7.1,17.53
11.38184404373169,8.18,17.19,7.55,20.47
11.393217086791992,10.81,18.43,2.47,21.5
11.401196956634521,13.1,19.96,-3.46,24.12
11.412965297698975,16.63,21.56,0.6,27.23
11.421239137649536,18.56,19.27,-1.34,26.78
11.431126117706299,17.54,14.83,-7.01,24.01
11.443295001983643,12.48,10.68,-9.95,19.2
11.451141119003296,7.55,8.96,-9.86,15.31
11.463126182556152,4.79,6.56,-7.72,11.2
11.471266269683838,1.19,2.88,-5.98,6.74
11.481263160705566,-0.44,-0.32,-3.9,3.93
11.493383169174194,-1.53,-2.16,-4.14,4.91
11.501280069351196,-3.39,-4.08,-1.26,5.45
11.513123035430908,-2.47,-4.63,3.19,6.14
11.521346092224121,0.27,-4.49,4.03,6.03
11.531342029571533,2.38,-3.79,2.18,4.97
11.543540954589844,4.67,-2.19,-0.82,5.22
11.551212072372437,6.19,-1.34,-1.84,6.59
11.563217163085938,7.62,-0.88,-1.52,7.81
11.571319103240967,8.34,-1.53,-2.34,8.79
11.581403255462646,9.16,-2.48,-2.26,9.75
11.593428134918213,10.09,-1.9,-0.47,10.27
11.601263046264648,7.38,-0.26,-1.12,7.46
11.613197088241577,2.46,1.92,-3.69,4.83
11.621325969696045,-1.31,3.97,-4.33,6.01
11.63132905960083,-4.44,4.94,-2.38,7.05
11.643654108047485,-7.54,4.61,-2.52,9.18
11.65140414237976,-9.36,3.3,-3.77,10.61
11.663248062133789,-9.8,1.42,-4.52,10.88
11.671431064605713,-6.85,0.64,-6.53,9.48
11.681394100189209,-1.93,0.69,-6.06,6.39
11.693824291229248,-0.23,0.64,-5.77,5.8
11.701397180557251,0.52,0.92,-7.47,7.54
11.713373184204102,0.85,1.95,-7.19,7.49
11.721473217010498,0.46,3.68,-5.42,6.56
11.731460094451904,-1.97,4.37,-6.35,7.95
11.74370527267456,-4.36,3.67,-7.99,9.81
11.751306056976318,-5.86,2.66,-8.93,11.0
11.763362169265747,-6.98,1.77,-9.88,12.22
11.77137804031372,-8.28,1.28,-11.58,14.29
11.781387090682983,-9.51,0.78,-12.76,15.93
11.793769121170044,-10.53,0.33,-13.57,17.17
11.801468133926392,-11.3,-0.03,-13.43,17.55
11.81343126296997,-11.52,-0.45,-12.17,16.76
11.821468114852905,-10.11,-0.88,-10.36,14.5
11.831478118896484,-8.17,-0.95,-9.59,12.63
11.843799114227295,-7.45,-0.62,-10.75,13.09
11.851543188095093,-7.02,-0.43,-11.42,13.41
11.86341118812561,-5.72,-0.1,-12.66,13.89
11.871410131454468,-4.01,0.18,-14.31,14.86
11.881402969360352,-2.73,-0.05,-15.93,16.16
11.89365530014038,-2.92,-0.63,-17.87,18.11
11.901398181915283,-5.67,-1.22,-19.68,20.51
11.913377285003662,-9.05,-1.3,-20.62,22.55
11.921419143676758,-10.5,-1.23,-18.92,21.67
11.93160629272461,-11.88,-1.43,-15.59,19.65
11.943809986114502,-11.97,-1.58,-15.42,19.58
11.951425075531006,-8.39,-1.18,-15.15,17.35
11.963418960571289,-4.74,-0.9,-13.94,14.75
11.971494197845459,-3.17,-0.99,-14.18,14.56
11.981455087661743,-2.28,-1.31,-14.38,14.61
11.993782997131348,-1.35,-1.75,-14.04,14.21
12.001536130905151,-1.04,-2.46,-13.74,13.99
12.013429164886475,-3.24,-3.06,-13.37,14.09
12.02161717414856,-5.65,-3.01,-12.73,14.24
12.031588077545166,-6.6,-2.57,-11.34,13.37
12.043774127960205,-6.42,-1.4,-10.71,12.56
12.05159616470337,-5.03,0.3,-10.42,11.57
12.06357717514038,-3.19,2.02,-9.8,10.5
12.071463108062744,-2.12,3.64,-10.03,10.87
12.081557273864746,-2.19,4.65,-10.73,11.89
12.093883037567139,-2.6,5.36,-11.01,12.51
12.101624011993408,-3.56,5.76,-11.51,13.35
12.113583087921143,-4.88,5.78,-12.06,14.23
12.121543169021606,-6.01,5.64,-12.1,14.64
12.131628036499023,-6.75,5.47,-11.59,14.48
12.143794059753418,-6.93,5.11,-10.95,13.92
12.151612281799316,-6.07,4.46,-10.66,13.05
12.163525104522705,-5.62,3.88,-10.49,12.51
12.171630144119263,-5.74,3.28,-9.69,11.73
12.18160629272461,-5.81,3.63,-9.55,11.75
12.193886280059814,-6.06,5.61,-10.29,13.19
12.201594114303589,-6.37,7.8,-10.6,14.62
12.21356201171875,-6.53,8.3,-10.23,14.7
12.221609115600586,-7.88,8.96,-8.92,14.89
12.231632232666016,-9.34,6.38,-8.12,13.92
12.243921279907227,-9.0,1.96,-7.83,12.08
12.25162410736084,-8.86,-0.37,-6.95,11.26
12.263650178909302,-9.49,-0.89,-6.19,11.36
12.27168321609497,-10.45,-0.71,-4.88,11.55
12.281646251678467,-10.74,-0.81,-3.2,11.23
12.293882131576538,-9.88,-0.82,-1.68,10.05
12.301758289337158,-8.4,-0.73,-0.5,8.44
12.313669204711914,-6.92,-1.23,0.91,7.08
12.321681022644043,-5.78,-2.25,1.99,6.51
12.33170223236084,-4.69,-3.19,2.56,6.22
12.343899250030518,-3.5,-3.09,3.0,5.54
12.351696014404297,-2.51,-1.67,3.41,4.55
12.363685131072998,-2.02,0.23,3.13,3.73
12.3716561794281,-2.79,1.59,2.98,4.38
12.381668090820312,-3.99,1.83,2.93,5.27
12.394001007080078,-5.23,0.94,2.67,5.94
12.401625156402588,-6.16,0.02,2.24,6.55
12.413605213165283,-6.37,-0.46,2.12,6.72
12.423823118209839,-6.05,-0.44,2.11,6.42
12.43166708946228,-5.43,-0.28,2.28,5.89
12.443915128707886,-4.74,-0.34,2.75,5.49
12.451619148254395,-4.29,-0.5,2.75,5.12
12.463471174240112,-4.05,-0.62,2.39,4.74
12.473886013031006,-3.87,-0.83,2.32,4.58
12.481878280639648,-3.88,-1.15,2.33,4.66
12.494050979614258,-4.02,-1.21,2.09,4.68
12.501782178878784,-4.1,-0.79,2.07,4.66
12.5137619972229,-4.13,-0.18,2.15,4.65
12.52378225326538,-4.06,0.28,2.16,4.6
12.531809091567993,-4.04,0.02,2.44,4.71
12.544058084487915,-4.05,-0.72,2.51,4.81
12.551667213439941,-3.82,-1.37,2.51,4.77
12.563799142837524,-3.31,-1.94,2.69,4.68
12.573981285095215,-3.15,-2.35,2.38,4.59
12.581844091415405,-3.26,-2.23,2.46,4.65
12.59410309791565,-2.82,-2.0,2.71,4.39
12.601847171783447,-2.06,-1.94,2.15,3.55
12.613723278045654,-1.41,-1.74,1.56,2.72
12.623966217041016,-0.71,-1.59,1.11,2.06
12.631957054138184,0.03,-1.5,0.71,1.65
12.644026279449463,0.16,-1.53,0.35,1.57
12.651813983917236,-0.49,-1.56,-0.13,1.64
12.663668155670166,-2.92,-1.26,-0.7,3.25
12.673948287963867,-3.94,-0.86,-0.87,4.12
12.681851148605347,-3.93,-0.78,-0.54,4.04
12.693999290466309,-3.73,-0.41,-0.91,3.86
12.701756000518799,-2.77,0.34,-0.75,2.88
12.71356725692749,-2.01,0.72,-0.62,2.22
12.723871231079102,-1.93,0.81,-0.89,2.27
12.73182201385498,-2.5,0.97,-0.9,2.82
12.744077205657959,-3.48,1.04,-0.79,3.71
12.7518150806427,-4.49,1.03,-0.59,4.64
12.76375412940979,-5.19,1.15,-0.83,5.38
12.774078130722046,-2.97,2.34,0.42,3.8
12.781860113143921,0.59,3.86,2.58,4.68
12.794118165969849,2.86,4.41,2.57,5.85
12.801979064941406,5.86,6.81,4.15,9.89
12.81416130065918,7.61,10.67,2.64,13.36
12.824059963226318,6.45,13.44,-7.83,16.83
12.832033157348633,9.38,11.56,-2.55,15.1
12.844135284423828,9.0,5.41,-0.69,10.52
12.852043151855469,1.59,0.27,-2.37,2.86
12.863782167434692,-1.74,-1.96,-4.99,5.63
12.874081134796143,-2.53,-4.95,-5.93,8.12
12.881941080093384,-4.14,-7.03,-3.11,8.73
12.894222259521484,-5.79,-6.21,-0.26,8.49
12.902007102966309,-6.65,-1.86,1.02,6.98
12.913756132125854,-5.14,3.08,1.5,6.17
12.924142122268677,-0.62,4.88,2.46,5.5
12.932000160217285,3.61,2.34,2.82,5.14
12.944231986999512,5.13,-1.4,2.21,5.75
12.952091217041016,4.16,-2.74,0.95,5.07
12.963957071304321,0.64,-1.2,-0.93,1.64
12.97408413887024,-2.3,0.76,-2.7,3.62
12.981897115707397,-4.2,1.1,-2.56,5.04
12.994307041168213,-4.63,-0.06,-1.36,4.82
13.002163171768188,-3.46,-0.88,-0.49,3.6
13.014108180999756,-1.6,-0.34,0.84,1.83
13.024433135986328,-0.08,0.19,1.65,1.66
13.032069206237793,0.73,0.15,2.0,2.13
13.044360160827637,0.71,-0.08,2.06,2.18
13.05213713645935,0.02,-0.25,1.56,1.58
13.0640230178833,-1.04,-0.34,0.21,1.11
13.074315071105957,-2.19,-0.28,0.02,2.2
13.082153081893921,-2.94,-0.13,-0.22,2.95
13.094329118728638,-2.47,-0.18,-0.49,2.52
13.102174282073975,-1.4,-0.19,-0.2,1.42
13.114050149917603,-0.23,0.06,0.17,0.29
13.124113082885742,0.64,0.15,0.54,0.85
13.132127285003662,0.99,0.19,0.51,1.12
13.144258975982666,0.46,0.12,0.25,0.53
13.152064085006714,0.03,0.06,0.55,0.55
13.16390323638916,0.01,0.11,0.37,0.38
13.174028158187866,-0.14,0.22,-0.31,0.4
13.182216167449951,0.17,0.37,0.44,0.59
13.194358110427856,0.88,0.37,0.32,1.0
13.202193260192871,1.03,0.33,-0.15,1.09
13.21418309211731,1.19,0.32,0.12,1.23
13.224138259887695,1.26,0.38,-0.24,1.33
13.232234954833984,1.45,0.48,-0.41,1.58
13.244441032409668,1.82,0.37,-0.69,1.98
13.252177238464355,1.97,0.42,-1.08,2.28
13.264211177825928,1.81,0.41,-0.81,2.02
13.273916244506836,1.53,0.41,-0.94,1.84
13.282315254211426,1.85,0.39,-0.54,1.96
13.294543266296387,2.48,0.16,-0.48,2.53
13.30224895477295,3.26,0.01,-0.49,3.29
13.314186096191406,2.74,1.02,-0.63,2.99
13.323979139328003,1.07,1.94,-0.62,2.3
13.332295179367065,0.56,1.55,0.53,1.73
13.344425201416016,0.02,1.27,-0.43,1.34
13.35222315788269,0.22,1.91,0.27,1.94
13.364122152328491,0.87,2.3,0.61,2.53
13.373888969421387,1.51,2.02,1.94,3.18
13.382244110107422,2.49,2.68,1.41,3.92
13.394443035125732,2.84,4.26,-0.64,5.15
13.40230107307434,2.75,5.23,-2.66,6.48
13.414106130599976,1.72,5.6,-3.79,6.97
13.4239501953125,1.04,6.09,-2.53,6.67
13.432423114776611,1.34,7.47,-0.49,7.6
13.444517135620117,2.72,9.36,1.49,9.86
13.452394962310791,4.93,10.93,3.18,12.4
13.46504807472229,7.23,12.03,3.82,14.54
13.473841190338135,9.05,12.81,2.8,15.93
13.4828519821167,10.5,13.54,0.41,17.13
13.494643211364746,12.06,14.15,-1.92,18.69
13.50267505645752,13.66,14.02,-4.6,20.1
13.514992237091064,14.97,13.13,-6.68,21.0
13.52384614944458,15.71,12.37,-5.5,20.73
13.532371044158936,15.64,11.9,-4.07,20.06
13.546940088272095,13.6,11.89,-3.56,18.41
13.552858114242554,8.97,10.9,-3.13,14.45
13.564645290374756,6.89,9.29,-3.13,11.98
13.575246095657349,6.15,7.66,-3.3,10.36
13.582977294921875,5.15,5.16,-3.12,7.92
13.596918106079102,4.54,1.93,-0.9,5.01
13.603374004364014,4.75,-0.25,-3.13,5.69
13.614720106124878,5.34,-1.76,-3.48,6.61
13.62513518333435,7.1,-2.74,-2.76,8.09
13.63294506072998,9.37,-3.46,-1.51,10.1
13.646825075149536,10.85,-4.15,0.18,11.61
13.652964115142822,11.63,-4.39,0.5,12.44
13.664713144302368,11.82,-3.74,0.26,12.4
13.675417184829712,10.72,-3.1,0.35,11.16
13.68308711051941,8.28,-2.41,0.2,8.62
13.697029113769531,6.4,-2.02,0.3,6.71
13.703495979309082,5.75,-2.01,0.67,6.12
13.714676141738892,5.48,-2.04,0.83,5.9
13.724985122680664,4.69,-2.16,1.06,5.27
13.732980251312256,3.72,-2.5,1.1,4.61
13.746771097183228,2.77,-2.8,1.1,4.08
13.753021240234375,1.98,-2.59,1.19,3.47
13.764724254608154,1.47,-1.92,1.9,3.07
13.775352001190186,1.14,-1.08,2.27,2.76
13.783026218414307,0.69,-0.36,1.86,2.01
13.797016143798828,-0.2,0.18,0.85,0.89
13.803532123565674,-1.06,0.73,-0.52,1.38
13.814739227294922,-1.76,1.26,-0.84,2.32
13.824934005737305,-2.18,1.76,-0.42,2.83
13.833034992218018,-2.12,2.29,-0.51,3.16
13.84705400466919,-2.41,3.08,-0.81,3.99
13.853027105331421,-2.87,3.81,-1.35,4.95
13.864968299865723,-3.44,4.52,-1.29,5.82
13.875413179397583,-4.57,5.65,-0.62,7.29
13.883177280426025,-5.86,6.73,-0.68,8.94
13.896992206573486,-7.22,7.44,-1.05,10.42
13.903532028198242,-9.14,7.75,-0.94,12.02
13.914795160293579,-10.74,8.14,-1.9,13.6
13.924910068511963,-12.23,8.9,-1.26,15.17
13.933127164840698,-13.86,9.34,0.71,16.72
13.947123050689697,-14.91,8.56,-1.34,17.24
13.953088283538818,-15.56,6.31,-4.06,17.27
13.964958190917969,-16.83,3.89,-5.89,18.25
13.975152969360352,-18.44,2.46,-5.54,19.41
13.983135223388672,-19.61,1.36,-4.95,20.27
13.997048139572144,-20.7,0.05,-5.76,21.48
14.003942966461182,-21.44,-0.8,-3.77,21.78
14.014860153198242,-16.86,1.22,-2.21,17.04
14.024823188781738,0.15,10.05,18.86,21.37
14.033470153808594,6.6,15.21,34.65,38.41
14.045697212219238,-5.81,18.23,-20.74,28.21
14.052589178085327,-6.36,18.96,-19.53,27.95
14.06503415107727,-1.73,9.15,-1.2,9.38
14.075181007385254,0.49,0.18,3.84,3.87
14.083217144012451,-2.06,-6.0,-3.41,7.2
14.097117185592651,-4.75,-9.88,-6.94,12.97
14.104104995727539,-6.95,-11.21,-3.0,13.52
14.114885091781616,-9.57,-9.53,-2.3,13.7
14.124717235565186,-12.53,-2.85,2.48,13.08
14.133165121078491,-15.48,6.2,1.54,16.74
14.147132158279419,-16.1,3.43,-0.85,16.48
14.153192043304443,-8.95,-3.49,0.7,9.63
14.164980173110962,-1.15,-2.59,2.85,4.01
14.175041198730469,1.22,-0.36,2.78,3.05
14.183293104171753,2.07,1.3,0.89,2.6
14.19708514213562,3.28,2.2,-0.68,4.0
14.204069137573242,3.87,1.9,-1.19,4.47
14.21506929397583,0.69,0.43,-0.51,0.95
14.224552154541016,-4.04,-0.38,-1.31,4.26
14.233272075653076,-4.74,-0.59,-2.78,5.52
14.247337102890015,-3.11,-0.49,-1.75,3.6
14.253244161605835,-0.43,0.23,-0.56,0.74
14.265066146850586,1.69,0.89,0.53,1.98
14.274892091751099,3.09,1.28,1.47,3.65
14.283498287200928,3.83,1.12,0.74,4.05
14.29735517501831,3.16,0.58,-0.22,3.22
14.30407428741455,1.03,0.28,-0.39,1.13
14.315493106842041,-0.63,0.54,-0.87,1.2
14.324234008789062,-1.13,0.66,-0.62,1.44
14.333384037017822,-0.55,0.68,0.22,0.9
14.347360134124756,0.52,0.86,0.59,1.16
14.353283166885376,1.34,1.07,0.55,1.8
14.365180969238281,1.96,1.08,0.69,2.34
14.374711036682129,2.24,0.96,0.13,2.44
14.383433103561401,2.27,0.88,-0.22,2.44
14.397264957427979,1.73,0.66,0.36,1.88
14.404025077819824,1.24,0.56,0.19,1.37
14.4150390625,1.54,0.74,0.45,1.76
14.42436695098877,1.81,0.97,0.53,2.12
14.433390140533447,2.07,1.28,-0.15,2.43
14.447235107421875,2.23,1.65,-0.33,2.79
14.45375919342041,2.47,1.93,-0.74,3.22
14.465151071548462,2.75,2.5,-1.53,4.01
14.474616050720215,3.03,3.62,-0.8,4.78
14.483443260192871,3.43,4.94,0.09,6.01
14.497265100479126,3.95,6.43,1.02,7.61
14.504117012023926,5.14,7.52,2.62,9.47
14.515125274658203,6.04,7.97,2.16,10.23
14.524296283721924,6.47,8.66,1.15,10.87
14.533421039581299,6.96,9.9,0.63,12.11
14.54835319519043,7.74,11.56,0.08,13.91
14.553795099258423,9.07,13.16,0.05,15.98
14.565349102020264,10.82,14.53,-0.18,18.11
14.57299017906189,12.77,14.9,-1.74,19.7
14.58327317237854,14.42,14.4,-6.84,21.49
14.596010208129883,16.39,16.0,-8.51,24.43
14.603987216949463,19.31,17.96,-7.06,27.29
14.614692211151123,21.43,17.36,-4.96,28.02
14.624391078948975,20.15,13.33,-3.32,24.38
14.633609294891357,12.36,8.64,0.27,15.08
14.64749813079834,8.44,7.38,-1.41,11.29
14.653768062591553,6.88,4.78,-4.35,9.43
14.665417194366455,4.78,-0.16,-3.67,6.02
14.67460823059082,3.68,-2.79,-8.02,9.25
14.683586120605469,1.52,-5.3,-5.8,8.0
14.697489261627197,1.81,-6.76,-1.95,7.26
14.70437216758728,3.78,-7.37,2.54,8.66
14.715173244476318,5.69,-7.47,4.62,10.46
14.724022150039673,6.98,-7.34,1.8,10.28
14.733526229858398,8.64,-6.65,-1.18,10.96
14.747398138046265,9.59,-4.47,-1.44,10.67
14.753777027130127,9.43,-2.07,0.23,9.65
14.765326023101807,8.2,-0.18,2.23,8.49
14.774389266967773,6.45,0.53,2.57,6.96
14.783602237701416,5.43,0.8,2.55,6.05
14.797460079193115,4.8,0.51,2.66,5.51
14.804326057434082,4.04,-0.26,2.59,4.8
14.815307140350342,2.88,-0.36,2.32,3.71
14.82411527633667,2.02,0.38,1.94,2.82
14.833616256713867,1.25,1.37,1.78,2.57
14.847557067871094,0.17,1.87,1.81,2.6
14.853882074356079,-0.71,1.73,1.59,2.45
14.865386962890625,-1.28,1.69,1.08,2.37
14.874438285827637,-1.48,1.74,0.88,2.44
14.883774280548096,-1.52,1.98,0.85,2.63
14.897542953491211,-1.74,2.47,0.67,3.09
14.904520034790039,-2.23,3.03,0.18,3.76
14.915465116500854,-3.03,3.58,-0.27,4.69
14.92416000366211,-4.2,4.1,-1.11,5.97
14.933664083480835,-5.66,4.57,-2.08,7.56
14.94760012626648,-7.18,4.91,-1.93,8.9
14.953935146331787,-8.75,5.24,-2.36,10.46
14.965555191040039,-10.18,5.52,-2.48,11.84
14.974452018737793,-11.61,5.6,-2.95,13.22
14.983650207519531,-13.14,5.33,-4.62,14.91
14.997735023498535,-14.79,4.85,-4.9,16.31
15.004534244537354,-16.47,4.17,-4.82,17.66
15.015443086624146,-17.48,3.35,-5.69,18.68
15.024186134338379,-18.52,2.65,-5.63,19.53
15.033652305603027,-19.46,1.8,-5.95,20.42
15.047577142715454,-20.05,0.5,-6.03,20.94
15.053930282592773,-19.87,-1.04,-5.55,20.65
15.065445184707642,-18.6,-2.19,-5.35,19.47
15.074511051177979,-15.59,-0.31,-3.32,15.94
15.083882093429565,-8.83,5.25,-3.5,10.85
15.098504066467285,3.55,13.87,24.55,28.41
15.103856086730957,6.14,17.42,23.96,30.25
15.115053176879883,-4.79,18.45,-27.02,33.06
15.123072147369385,-2.93,12.04,-15.21,19.61
15.134359121322632,0.0,2.88,-5.34,6.06
15.14542818069458,-0.01,-3.03,-0.05,3.03
15.153505086898804,-4.82,-6.34,-0.15,7.96
15.164999961853027,-9.0,-7.39,-1.9,11.79
15.173089981079102,-11.98,-6.39,-6.6,15.09
15.183259963989258,-16.89,-2.56,1.95,17.19
15.195476055145264,-18.26,-0.92,3.01,18.52
15.203588962554932,-12.49,-1.74,-0.73,12.63
15.214999198913574,-4.44,-1.34,-0.54,4.66
15.223124980926514,-0.86,0.03,1.43,1.66
15.233337163925171,1.04,1.26,2.12,2.67
15.245435237884521,1.91,2.02,0.84,2.9
15.25357723236084,2.4,1.51,-0.31,2.85
15.265028953552246,0.27,0.31,-1.01,1.09
15.273290157318115,-2.81,0.09,-0.89,2.94
15.283236980438232,-3.8,0.41,-1.38,4.06
15.295425176620483,-3.84,0.45,-1.12,4.02
15.303547143936157,-1.84,0.5,-0.29,1.92
15.31515121459961,0.5,0.83,0.83,1.27
15.32321810722351,1.9,0.92,1.09,2.37
15.333352088928223,2.33,0.52,0.91,2.55
15.345526218414307,2.48,0.28,0.68,2.58
15.353636264801025,2.87,0.48,-0.12,2.91
15.365262031555176,1.76,0.79,-0.18,1.93
15.375805139541626,-0.23,0.51,-0.65,0.85
15.383255958557129,0.3,0.2,-0.76,0.84
15.395462036132812,1.28,0.16,-0.32,1.32
15.403603076934814,1.97,0.28,-0.34,2.01
15.4151291847229,2.3,0.41,-0.57,2.4
15.423391103744507,2.57,0.35,-0.26,2.6
15.433304071426392,2.85,0.01,-0.41,2.87
15.44578504562378,2.57,-0.45,-0.73,2.7
15.453745126724243,2.35,-0.43,-0.46,2.43
15.465294122695923,2.05,0.15,-0.06,2.05
15.473278999328613,1.58,0.72,-0.24,1.75
15.483829975128174,1.18,1.23,-0.05,1.7
15.495543956756592,1.06,1.72,-0.19,2.02
15.503632068634033,1.11,2.2,-0.51,2.51
15.515137195587158,1.55,2.8,-0.23,3.2
15.52343225479126,2.17,3.66,0.1,4.25
15.533440113067627,2.75,4.82,0.67,5.58
15.545814037322998,3.69,5.91,1.87,7.21
15.553571224212646,4.5,6.71,2.27,8.39
15.56532096862793,5.23,7.3,2.63,9.35
15.573436260223389,5.73,7.87,1.68,9.87
15.583454132080078,6.11,8.93,0.18,10.82
15.595879077911377,6.83,10.68,-0.01,12.67
15.603669166564941,7.63,12.89,-0.27,14.98
15.616490125656128,9.14,15.3,0.09,17.82
15.623839139938354,11.07,16.94,-0.45,20.24
15.634008169174194,12.62,16.32,-4.16,21.04
15.64646315574646,14.42,16.31,-7.1,22.89
15.653549194335938,16.84,17.07,-4.47,24.39
15.665378093719482,18.28,16.11,-5.26,24.92
15.673571109771729,18.1,13.35,-5.83,23.23
15.68349313735962,12.97,9.98,-1.21,16.4
15.695666074752808,8.43,9.0,-0.42,12.33
15.703534126281738,6.83,8.19,-4.29,11.49
15.715283155441284,5.28,5.19,-4.8,8.82
15.723416090011597,3.58,0.89,-3.13,4.83
15.733440160751343,2.36,-1.32,-6.17,6.73
15.74568796157837,1.86,-3.31,-4.8,6.12
15.75363302230835,3.66,-4.29,-0.89,5.7
15.765419006347656,6.54,-4.8,2.46,8.47
15.773539066314697,8.69,-5.17,3.51,10.7
15.783506155014038,10.07,-5.35,1.51,11.5
15.795715093612671,10.92,-5.34,-0.2,12.15
15.803421020507812,10.94,-4.34,0.19,11.77
15.815489292144775,8.69,-2.92,0.46,9.17
15.823511123657227,5.93,-1.68,0.8,6.21
15.833639144897461,4.55,-1.04,1.39,4.86
15.8457670211792,4.99,-1.23,1.33,5.3
15.85348916053772,5.8,-1.87,1.18,6.2
15.865470170974731,5.38,-2.47,1.06,6.01
15.8736572265625,4.24,-2.58,0.85,5.03
15.88365912437439,3.08,-2.11,0.61,3.78
15.895869255065918,2.07,-1.34,0.84,2.6
15.903427124023438,0.84,-0.59,1.11,1.51
15.915261268615723,-0.61,0.21,0.73,0.97
15.923545122146606,-1.95,1.06,0.04,2.21
15.933520078659058,-3.15,1.79,-0.65,3.68
15.945717096328735,-3.91,2.33,-1.06,4.67
15.953509092330933,-4.3,2.83,-1.37,5.32
15.9655179977417,-4.86,3.48,-2.07,6.32
15.973721981048584,-5.57,4.04,-2.16,7.21
15.983546257019043,-6.16,4.29,-1.83,7.72
15.995895147323608,-6.85,4.6,-1.32,8.35
16.003456115722656,-7.85,5.41,-1.23,9.61
16.01545810699463,-9.08,6.66,-0.95,11.3
16.023622035980225,-10.65,7.98,-0.89,13.33
16.033584117889404,-12.07,8.78,-2.06,15.06
16.04586124420166,-13.29,8.82,-3.29,16.28
16.053534030914307,-14.69,7.3,-2.35,16.57
16.065584182739258,-15.48,4.77,-5.11,16.98
16.0736722946167,-16.43,2.67,-6.85,17.99
16.083802223205566,-17.59,1.17,-5.31,18.41
16.095895290374756,-18.43,0.29,-4.92,19.07
16.103593111038208,-18.84,-0.77,-5.74,19.71
16.11555528640747,-18.79,-1.73,-4.34,19.36
16.12378716468811,-15.9,-0.78,-2.37,16.09
16.133862018585205,-9.63,4.11,-3.04,10.9
16.14656114578247,0.51,12.67,13.91,18.82
16.153696060180664,7.52,18.44,36.8,41.84
16.165548086166382,-3.0,18.87,-17.92,26.19
16.1753511428833,-5.92,11.19,-19.47,23.22
16.18430519104004,-2.75,1.63,-8.86,9.41
16.198307991027832,-0.7,-5.35,-1.55,5.61
16.20464515686035,-4.15,-9.14,-2.01,10.23
16.21610116958618,-9.41,-8.6,0.75,12.76
16.224976062774658,-12.05,-5.82,-5.19,14.35
16.234333038330078,-16.87,0.72,-1.24,16.93
16.24831509590149,-20.0,2.24,4.24,20.56
16.2542462348938,-17.05,-2.45,0.4,17.22
16.26603412628174,-7.86,-3.99,-1.33,8.91
16.27528214454651,-2.17,-1.26,-0.02,2.5
16.28444218635559,0.19,0.95,0.97,1.37
16.298229217529297,1.75,2.34,0.87,3.04
16.304744243621826,3.16,2.62,0.63,4.15
16.31617307662964,3.91,1.72,-0.67,4.32
16.325077056884766,2.47,0.48,-2.53,3.56
16.334375143051147,-3.26,-0.37,-2.16,3.92
16.34837317466736,-6.21,-0.3,-1.54,6.4
16.354396104812622,-4.68,0.11,-0.37,4.69
16.366096019744873,-1.88,0.57,0.37,1.99
16.375336170196533,0.88,0.74,0.65,1.32
16.384530067443848,2.81,0.43,0.96,3.0
16.3982892036438,2.9,0.14,0.58,2.96
16.4048330783844,3.56,0.18,-0.3,3.57
16.41608715057373,3.96,0.47,-0.29,3.99
16.424983024597168,1.14,0.35,-0.29,1.22
16.434443950653076,-1.28,0.02,-0.69,1.45
16.44835114479065,-0.33,0.17,0.38,0.53
16.454448223114014,0.35,0.26,0.75,0.86
16.46612024307251,0.66,0.26,0.21,0.73
16.475269079208374,1.18,0.28,0.29,1.24
16.48444414138794,1.52,0.28,0.06,1.54
16.498894214630127,1.79,0.09,-0.31,1.81
16.505043983459473,2.05,-0.15,-0.21,2.06
16.516207218170166,2.27,-0.18,-0.04,2.27
16.525055170059204,2.29,0.03,0.27,2.3
16.534420013427734,2.56,0.75,-0.06,2.66
16.548506259918213,2.79,1.59,-0.59,3.26
16.554421186447144,2.85,1.98,-0.7,3.54
16.566267013549805,2.87,2.25,-1.56,3.96
16.575544118881226,2.83,2.84,-1.78,4.38
16.584606170654297,2.91,3.72,-1.19,4.87
16.598480224609375,3.5,4.75,-0.25,5.9
16.605170249938965,4.34,5.79,0.8,7.28
16.616424083709717,5.57,6.82,2.15,9.06
16.625193119049072,6.48,7.88,2.49,10.5
16.634562015533447,6.92,8.85,1.09,11.28
16.648588180541992,7.56,9.76,-0.18,12.34
16.654487133026123,8.28,11.02,-1.01,13.82
16.666341304779053,9.17,12.73,-0.57,15.69
16.674664974212646,10.27,14.05,0.38,17.4
16.68461513519287,11.45,14.59,0.17,18.54
16.696818113327026,12.83,13.85,-0.98,18.9
16.70456314086914,13.81,12.88,-4.74,19.46
16.71663522720337,14.39,12.86,-5.09,19.95
16.723933219909668,14.88,12.75,-5.12,20.25
16.734613180160522,14.76,12.68,-5.3,20.16
16.74848222732544,9.94,11.58,-2.03,15.39
16.754655122756958,5.71,9.78,-2.33,11.56
16.76628613471985,4.95,8.57,-6.32,11.74
16.77550506591797,3.47,5.38,-4.94,8.08
16.78461217880249,1.89,0.8,-4.36,4.81
16.798516273498535,1.79,-1.76,-7.08,7.51
16.805140018463135,2.99,-3.23,-3.9,5.88
16.816317081451416,5.97,-3.92,0.55,7.16
16.825188159942627,9.22,-4.2,2.57,10.45
16.834989070892334,11.11,-4.78,2.82,12.41
16.84862208366394,11.49,-5.62,1.31,12.85
16.854737281799316,11.07,-6.08,-0.21,12.63
16.866453170776367,9.68,-5.56,-0.15,11.16
16.875607013702393,6.79,-4.03,0.45,7.9
16.885155200958252,4.58,-2.55,0.95,5.32
16.898577213287354,3.87,-1.85,0.83,4.36
16.905259132385254,4.99,-1.73,0.66,5.32
16.9164719581604,6.15,-1.91,0.97,6.51
16.925255298614502,6.44,-2.05,1.0,6.83
16.93521809577942,5.84,-1.76,0.9,6.16
16.94878911972046,4.41,-1.17,0.88,4.64
16.954895973205566,3.09,-0.16,0.97,3.24
16.966649055480957,1.82,0.96,1.08,2.32
16.97559404373169,0.19,2.05,1.26,2.41
16.985233306884766,-1.3,2.86,1.15,3.34
16.998699188232422,-2.44,3.29,0.97,4.2
17.00545310974121,-3.22,3.36,0.72,4.7
17.016683101654053,-3.08,3.22,0.49,4.48
17.02547025680542,-2.32,3.25,0.17,3.99
17.03516721725464,-2.13,3.77,-0.38,4.34
17.048930168151855,-2.42,4.25,-0.9,4.97
17.054965019226074,-3.17,5.09,-1.65,6.21
17.066708087921143,-4.73,6.3,-2.69,8.32
17.07571315765381,-6.55,7.47,-2.75,10.3
17.08518123626709,-8.39,8.43,-3.29,12.34
17.09884023666382,-10.25,8.28,-4.27,13.85
17.105411052703857,-12.31,6.92,-5.55,15.17
17.11672830581665,-13.77,5.45,-6.37,16.12
17.1254620552063,-15.58,4.19,-5.65,17.09
17.135159969329834,-17.46,3.14,-4.95,18.41
17.148763179779053,-18.21,2.67,-5.72,19.27
17.154953002929688,-18.79,2.36,-4.0,19.35
17.166675090789795,-18.01,1.64,-3.02,18.33
17.17591118812561,-15.69,0.71,-2.51,15.9
17.185389041900635,-14.13,0.74,-1.16,14.19
17.198923110961914,-12.86,2.37,0.14,13.07
17.205485105514526,-9.36,6.16,-0.45,11.21
17.216755151748657,-1.11,14.17,12.87,19.17
17.22501516342163,3.42,18.54,29.69,35.16
17.235274076461792,-4.29,16.92,-12.77,21.62
17.24893307685852,-8.92,8.72,-15.26,19.7
17.2550311088562,-6.59,-0.86,-0.58,6.67
17.266701221466064,-5.38,-5.59,-5.23,9.35
17.275794982910156,-7.19,-8.71,-9.29,14.62
17.285319089889526,-7.96,-9.93,-2.24,12.92
17.298822164535522,-7.59,-6.13,1.39,9.85
17.305516242980957,-9.47,0.4,-2.16,9.72
17.316684246063232,-13.98,5.56,2.11,15.19
17.3254611492157,-14.86,3.96,1.33,15.43
17.335357189178467,-8.01,-2.12,0.86,8.33
17.348888158798218,-1.72,-2.72,-0.52,3.25
17.354938983917236,0.85,-0.79,-0.12,1.16
17.366664171218872,2.83,0.88,0.66,3.03
17.375816106796265,4.72,2.11,0.94,5.25
17.38534116744995,5.44,1.71,0.18,5.7
17.39891815185547,1.61,0.2,-1.04,1.92
17.405412197113037,-4.93,0.06,-1.82,5.25
17.416654109954834,-8.12,-0.46,-1.49,8.26
17.42545509338379,-7.29,-1.0,-0.45,7.37
17.43526315689087,-2.45,0.04,0.0,2.45
17.448979139328003,0.87,0.97,0.13,1.3
17.455056190490723,2.47,1.01,0.26,2.68
17.46679925918579,3.65,0.7,0.14,3.71
17.475789070129395,3.65,0.3,-0.18,3.66
17.485534191131592,1.68,0.05,-0.55,1.76
17.49933624267578,-0.31,0.2,-0.51,0.62
17.505545139312744,-1.09,0.5,0.24,1.22
17.516969203948975,-0.83,0.82,0.83,1.43
17.525617122650146,0.12,1.03,1.03,1.46
17.53551411628723,1.06,0.93,0.52,1.5
17.5490460395813,1.8,0.6,0.48,1.95
17.555073261260986,2.2,0.12,0.03,2.2
17.567049980163574,2.19,-0.19,-0.23,2.21
17.576019287109375,2.24,-0.2,-0.24,2.26
17.58546495437622,2.38,-0.16,-0.84,2.52
17.599043130874634,2.55,0.06,-0.46,2.59
17.605623245239258,2.06,0.63,-0.1,2.15
17.61720895767212,1.99,1.47,0.17,2.47
17.62576198577881,2.31,2.04,0.51,3.12
17.635512113571167,2.26,2.13,-0.06,3.1
17.64902400970459,2.4,2.2,-0.63,3.31
17.6550612449646,2.56,2.53,-1.18,3.78
17.666819095611572,2.54,3.29,-1.38,4.37
17.675989151000977,3.16,4.59,-0.1,5.57
17.6855251789093,3.64,5.69,0.73,6.79
17.698907136917114,4.22,6.67,1.27,7.99
17.70561408996582,4.9,7.36,1.06,8.9
17.716796159744263,5.62,8.1,0.14,9.85
17.72567129135132,6.49,8.97,-0.38,11.07
17.73551321029663,7.42,10.0,-0.38,12.45
17.749966144561768,8.49,11.32,-0.98,14.18
17.75543212890625,9.71,13.02,-2.05,16.37
17.766865253448486,11.25,14.79,-2.37,18.73
17.77530813217163,13.07,15.48,-3.28,20.52
17.78495216369629,14.84,14.83,-5.2,21.61
17.797346115112305,15.79,14.21,-5.59,21.96
17.8046932220459,15.93,13.21,-5.08,21.3
17.816410064697266,14.74,11.62,-3.42,19.07
17.824588298797607,10.57,9.29,-1.26,14.12
17.83496117591858,7.38,7.7,-1.19,10.73
17.846846103668213,6.27,6.85,-4.1,10.15
17.854639053344727,5.1,4.37,-4.22,7.93
17.866642951965332,3.71,0.94,-3.92,5.47
17.87463617324829,2.42,-1.15,-5.84,6.42
17.88488006591797,1.86,-3.1,-3.72,5.18
17.89684820175171,3.78,-3.82,-2.17,5.79
17.904750108718872,6.45,-4.02,-0.11,7.6
17.916455268859863,8.78,-4.26,1.52,9.87
17.924705028533936,10.49,-4.54,0.9,11.46
17.93489909172058,11.01,-4.65,-0.48,11.96
17.946866989135742,9.86,-4.13,0.25,10.69
17.954699993133545,6.74,-2.89,1.09,7.41
17.96661901473999,4.52,-1.71,1.23,4.98
17.97462797164917,3.67,-1.41,1.01,4.05
17.984840154647827,4.79,-1.82,0.42,5.14
17.99685001373291,5.87,-2.25,0.25,6.29
18.004781246185303,6.02,-2.35,0.44,6.47
18.016454219818115,5.06,-2.09,0.31,5.48
18.024662971496582,3.58,-1.3,0.24,3.81
18.03478217124939,2.18,-0.22,0.25,2.2
18.046998977661133,0.61,0.66,0.43,0.99
18.05471110343933,-1.12,1.1,0.5,1.64
18.066614151000977,-2.56,1.17,0.28,2.82
18.074819087982178,-3.7,1.08,-0.17,3.85
18.08477210998535,-4.1,1.1,-0.42,4.26
18.09692907333374,-3.02,1.15,-0.63,3.29
18.104759216308594,-2.03,1.43,-0.43,2.52
18.11677312850952,-1.94,2.12,-0.54,2.92
18.1248722076416,-2.28,3.14,-1.08,4.02
18.13466715812683,-3.08,3.95,-1.13,5.13
18.147083282470703,-4.57,4.44,-1.23,6.48
18.15488910675049,-6.27,4.69,-1.48,7.96
18.16720724105835,-7.81,5.11,-1.92,9.52
18.174824237823486,-9.4,5.82,-2.1,11.25
18.186668157577515,-10.43,7.02,-2.27,12.77
18.196978092193604,-11.47,7.72,-2.97,14.14
18.20494508743286,-12.67,7.43,-4.08,15.24
18.21664309501648,-14.04,6.24,-2.68,15.59
18.224884033203125,-15.09,4.56,-3.13,16.07
18.234742164611816,-16.18,2.93,-4.38,17.01
18.247032165527344,-17.16,1.72,-4.05,17.71
18.25484609603882,-17.87,0.97,-2.99,18.14
18.267168045043945,-18.25,0.69,-1.95,18.36
18.274861097335815,-18.2,1.09,-0.65,18.24
18.286520957946777,-15.18,4.28,-1.93,15.88
18.29754614830017,-2.38,13.24,13.27,18.89
18.305658102035522,3.21,18.0,32.78,37.53
18.31703209877014,-5.65,17.45,-15.18,23.8
18.324870109558105,-8.57,10.57,-16.34,21.26
18.33627223968506,-4.76,1.38,-6.13,7.88
18.347018241882324,-2.94,-4.13,-5.59,7.54
18.354878187179565,-4.5,-8.62,-2.67,10.08
18.36720609664917,-7.78,-9.79,1.19,12.56
18.37489414215088,-10.17,-7.34,-5.25,13.59
18.386380195617676,-13.51,-1.89,0.19,13.64
18.397089958190918,-17.86,5.31,6.94,19.88
18.404993057250977,-15.51,2.43,0.61,15.71
18.41715717315674,-6.19,-2.08,-2.34,6.93
18.424955129623413,-0.43,-1.07,-0.29,1.18
18.436363220214844,1.92,0.55,1.51,2.5
18.44705629348755,3.57,1.69,1.08,4.09
18.45497226715088,4.71,2.04,-0.55,5.16
18.467122077941895,4.37,1.2,-2.33,5.09
18.474982261657715,-1.4,0.13,-2.95,3.26
18.486388206481934,-6.46,0.01,-2.0,6.76
18.497109174728394,-6.89,0.23,-0.17,6.89
18.50500726699829,-4.31,0.43,0.57,4.36
18.51710319519043,-0.68,0.64,0.79,1.22
18.525079250335693,2.39,0.61,1.08,2.69
18.536169052124023,3.75,0.52,0.9,3.89
18.547179222106934,3.61,0.39,0.43,3.65
18.55503797531128,3.0,0.57,0.15,3.05
18.567130088806152,0.54,0.64,-0.2,0.86
18.57497811317444,-0.7,0.49,-0.29,0.9
18.586159229278564,-0.19,0.33,-0.16,0.41
18.59723210334778,0.63,0.32,-0.26,0.75
18.605070114135742,1.49,0.3,-0.36,1.56
18.61728000640869,2.12,0.11,-0.27,2.13
18.6250581741333,2.69,-0.19,-0.28,2.71
18.636195182800293,2.82,-0.7,-0.59,2.96
18.647264003753662,3.22,-1.02,-0.64,3.43
18.6551251411438,3.45,-0.71,-0.92,3.64
18.667171955108643,3.14,0.32,0.0,3.15
18.675024032592773,1.54,0.98,0.37,1.86
18.686216115951538,0.37,1.15,0.53,1.31
18.69722318649292,0.18,1.33,0.9,1.61
18.705178260803223,0.63,1.72,0.72,1.96
18.717170238494873,1.6,2.24,0.37,2.77
18.725146293640137,2.67,2.83,-0.05,3.89
18.736011028289795,3.01,3.26,-0.47,4.46
18.74732518196106,3.2,4.03,-0.38,5.15
18.755162239074707,3.56,5.3,-0.45,6.4
18.767442226409912,4.01,6.61,0.05,7.73
18.77512216567993,4.6,7.68,2.0,9.17
18.786063194274902,5.14,8.29,2.07,9.97
18.797274112701416,5.71,8.5,1.06,10.29
18.80518627166748,6.6,8.93,0.21,11.1
18.817329168319702,7.41,10.05,-1.26,12.54
18.82559108734131,8.52,11.96,-2.44,14.88
18.835995197296143,10.14,14.4,-2.78,17.82
18.84801721572876,11.9,15.61,-4.89,20.22
18.855988025665283,14.26,15.29,-6.99,22.04
18.86775302886963,17.01,16.34,-5.0,24.11
18.875681161880493,19.52,16.6,-3.98,25.93
18.886669158935547,19.62,14.6,-5.73,25.11
18.900001049041748,13.74,11.04,-2.12,17.75
18.906311988830566,8.41,9.3,1.53,12.63
18.91787099838257,7.35,8.92,-2.14,11.75
18.92637825012207,6.4,6.95,-5.54,10.95
18.936678171157837,4.49,2.51,-4.03,6.53
18.950165271759033,3.08,-0.4,-4.63,5.57
18.955862998962402,1.89,-2.21,-4.88,5.68
18.968059062957764,1.92,-3.74,-0.96,4.31
18.97666907310486,4.02,-4.31,1.62,6.11
18.98676109313965,6.4,-4.67,2.64,8.35
18.99997615814209,8.69,-4.94,3.57,10.61
19.006432056427002,10.79,-4.72,2.93,12.13
19.017920970916748,11.23,-4.23,0.92,12.03
19.026386260986328,10.72,-3.59,0.44,11.31
19.0365309715271,8.0,-2.69,0.84,8.48
19.050076961517334,5.0,-2.02,1.6,5.62
19.055803298950195,4.09,-2.04,2.05,5.0
19.068040132522583,5.02,-2.39,2.12,5.95
19.07677912712097,5.55,-2.7,2.21,6.55
19.086448192596436,4.79,-2.86,2.21,6.0
19.10019612312317,3.65,-2.82,2.01,5.03
19.10642719268799,2.57,-2.45,1.9,4.02
19.118103981018066,1.43,-1.69,1.72,2.8
19.12653112411499,0.15,-0.87,1.9,2.09
19.136686086654663,-1.2,-0.13,1.84,2.2
19.150105953216553,-2.41,0.59,1.36,2.82
19.156013011932373,-3.52,1.2,1.02,3.85
19.168153285980225,-3.9,1.64,1.22,4.4
19.176970958709717,-2.94,1.95,0.87,3.63
19.18658208847046,-2.49,2.63,0.39,3.64
19.200361251831055,-2.88,3.54,0.22,4.56
19.20645809173584,-3.46,4.87,-1.0,6.05
19.21804714202881,-4.19,6.56,-0.65,7.81
19.226503133773804,-5.38,8.29,0.53,9.89
19.236446142196655,-6.85,9.33,-0.13,11.57
19.248219966888428,-8.93,10.02,-1.82,13.54
19.25587511062622,-11.31,10.8,-2.91,15.9
19.26752209663391,-13.51,10.82,-2.12,17.43
19.27548122406006,-14.7,9.39,-6.11,18.48
19.285731077194214,-16.45,6.56,-8.06,19.45
19.29752016067505,-18.15,3.94,-9.12,20.69
19.3054461479187,-19.85,1.91,-8.28,21.59
19.317663192749023,-21.61,0.38,-6.7,22.62
19.32558298110962,-22.92,-1.0,-6.49,23.84
19.33635425567627,-23.62,-2.83,-5.53,24.42
19.350272178649902,-20.73,-3.64,-1.73,21.11
19.35594129562378,-9.78,1.69,1.41,10.02
19.368175983428955,3.76,11.36,28.41,30.82
19.375535011291504,6.09,16.76,23.85,29.77
19.38559913635254,-5.79,20.53,-27.96,35.16
19.397640228271484,-2.88,16.95,-17.01,24.18
19.405395030975342,3.14,9.16,-1.52,9.8
19.41786003112793,2.28,0.79,3.46,4.21
19.425650119781494,-3.21,-4.08,-6.96,8.68
19.435670137405396,-6.54,-7.84,-6.35,12.02
19.447758197784424,-9.57,-9.93,-0.35,13.79
19.45548915863037,-12.09,-8.45,2.32,14.93
19.46770715713501,-12.74,-3.1,0.12,13.11
19.47553014755249,-13.0,1.49,-1.38,13.15
19.485517978668213,-9.71,2.35,1.9,10.16
19.49772596359253,-2.61,0.92,1.85,3.32
19.5055890083313,0.18,0.51,1.58,1.67
19.51775598526001,1.18,0.19,0.92,1.5
19.525739192962646,1.9,0.3,-0.19,1.93
19.535495281219482,1.39,0.58,-0.19,1.51
19.54784607887268,-1.92,1.02,-0.75,2.29
19.555805206298828,-5.04,0.56,-2.0,5.45
19.567949295043945,-5.83,-0.2,-1.45,6.01
19.575698137283325,-3.3,-0.13,-0.06,3.3
19.585439205169678,-0.61,0.65,0.16,0.9
19.597698211669922,0.91,0.99,0.36,1.39
19.605592250823975,1.79,0.78,0.9,2.15
19.617592096328735,2.72,0.52,0.45,2.8
19.625665187835693,3.49,0.22,-0.36,3.51
19.635563135147095,3.66,0.2,-0.29,3.67
19.647768020629883,0.94,0.12,-0.54,1.09
19.655615091323853,-0.3,0.28,-0.46,0.61
19.667885303497314,0.75,0.66,0.61,1.17
19.675640106201172,0.97,0.7,0.65,1.36
19.685527086257935,1.22,0.53,0.14,1.33
19.697700023651123,1.67,0.3,-0.19,1.7
19.705636978149414,2.14,0.02,0.13,2.14
19.717819213867188,2.52,-0.37,-0.17,2.55
19.725614070892334,2.63,-0.93,-0.54,2.84
19.73557710647583,2.65,-1.1,-0.51,2.91
19.747900009155273,2.22,-0.13,-0.2,2.23
19.755690097808838,1.49,1.17,0.26,1.91
19.767763137817383,0.82,1.96,0.46,2.17
19.77565097808838,0.7,2.27,0.51,2.42
19.785628080368042,1.29,2.14,0.25,2.51
19.797762155532837,1.95,1.88,-0.58,2.77
19.805671215057373,2.33,2.29,-1.2,3.48
19.817808151245117,2.76,3.32,-0.91,4.41
19.825674057006836,3.35,4.43,-0.44,5.57
19.835597038269043,3.68,5.5,0.37,6.62
19.847965240478516,3.86,6.72,0.98,7.81
19.855741024017334,4.13,7.74,0.64,8.79
19.86800718307495,4.69,8.42,0.01,9.63
19.875689029693604,5.46,9.33,-0.46,10.81
19.885640144348145,6.45,10.94,-0.27,12.7
19.899070262908936,7.65,12.9,-0.68,15.01
19.906102180480957,9.09,15.07,-2.09,17.72
19.918015956878662,11.16,16.49,-2.91,20.12
19.926321983337402,13.4,16.35,-5.3,21.79
19.935774087905884,15.7,16.14,-6.52,23.44
19.94840717315674,17.73,15.97,-5.43,24.47
19.955767154693604,19.08,15.25,-5.08,24.94
19.968639135360718,16.93,13.01,-3.63,21.65
19.97719717025757,10.23,10.2,-0.26,14.44
19.986253261566162,7.23,8.92,-0.89,11.51
20.000800132751465,6.1,7.28,-4.94,10.7
20.00690007209778,4.26,3.58,-2.85,6.25
20.01844596862793,3.08,0.67,-3.9,5.01
20.02707529067993,1.91,-1.63,-3.41,4.23
20.036327123641968,2.32,-3.39,-1.51,4.37
20.050840139389038,4.93,-4.15,-0.69,6.48
20.056395053863525,7.57,-4.53,0.46,8.83
20.06861400604248,9.75,-4.81,1.4,10.96
20.077391147613525,11.09,-4.87,0.82,12.13
20.086427211761475,11.59,-4.85,0.31,12.56
20.10061812400818,11.29,-4.56,1.02,12.21
20.10698914527893,8.79,-3.65,1.54,9.64
20.118725299835205,6.06,-3.01,1.31,6.89
20.126949071884155,5.02,-3.07,1.13,5.99
20.136345148086548,5.28,-3.44,1.04,6.38
20.150695085525513,5.34,-3.73,1.01,6.59
20.15641713142395,4.95,-3.78,1.35,6.37
20.168750286102295,4.48,-3.52,1.36,5.85
20.17741298675537,3.8,-2.98,1.28,4.99
20.186559200286865,2.68,-2.42,1.33,3.84
20.200773239135742,1.24,-1.63,1.11,2.32
20.20705795288086,-0.1,-0.44,0.87,0.98
20.218557119369507,-1.4,0.91,0.77,1.83
20.227099180221558,-2.64,1.92,1.08,3.43
20.236392974853516,-3.43,2.35,1.08,4.29
20.25073528289795,-3.35,2.61,0.09,4.24
20.256511211395264,-3.51,3.26,-0.77,4.85
20.26850914955139,-3.94,4.04,-1.25,5.77
20.277491092681885,-4.12,5.24,-1.02,6.74
20.286476135253906,-4.02,6.53,0.37,7.67
20.300724029541016,-3.94,7.64,-0.24,8.59
20.307010173797607,-5.07,8.57,-0.81,9.99
20.318653106689453,-7.68,8.96,-1.39,11.88
20.327104091644287,-10.0,9.06,-4.16,14.12
20.336608171463013,-12.13,9.43,-6.34,16.62
20.35096025466919,-14.23,9.64,-6.49,18.37
20.35663604736328,-17.03,7.57,-4.53,19.17
20.368607997894287,-18.0,4.36,-10.53,21.3
20.377402305603027,-19.62,0.78,-10.29,22.16
20.388580083847046,-21.49,-2.0,-8.24,23.1
20.39914608001709,-23.27,-3.94,-5.81,24.3
20.40605616569519,-24.39,-5.2,-4.79,25.39
20.417702198028564,-23.88,-4.87,-4.07,24.7
20.425997257232666,-16.61,0.18,-0.26,16.61
20.435966968536377,-5.2,8.76,13.71,17.08
20.449851989746094,4.13,14.23,31.57,34.87
20.456806182861328,-3.63,16.92,-12.62,21.41
20.467714071273804,-4.48,17.09,-19.96,26.65
20.476128101348877,1.31,8.95,-7.35,11.65
20.486069202423096,4.77,3.54,-7.18,9.31
20.498650074005127,2.56,-0.72,-1.13,2.88
20.506093978881836,-4.86,-3.62,3.14,6.82
20.517824172973633,-7.12,-4.71,-4.64,9.71
20.526008129119873,-9.47,-5.62,-7.27,13.19
20.53613519668579,-14.29,-5.68,4.81,16.11
20.548624992370605,-15.42,-2.21,1.56,15.65
20.55616307258606,-12.44,0.42,-0.28,12.45
20.56794810295105,-3.78,0.77,1.03,3.99
20.576064109802246,0.23,1.1,1.42,1.81
20.586347103118896,1.64,0.98,1.7,2.55
20.59871006011963,2.57,0.99,0.16,2.75
20.606341123580933,3.47,1.01,-1.11,3.78
20.617783069610596,1.98,0.56,-2.76,3.44
20.626341104507446,-4.0,0.01,-2.78,4.87
20.636211156845093,-6.3,0.15,-1.27,6.42
20.648887157440186,-4.09,0.53,0.42,4.14
20.656134128570557,-0.76,0.77,0.68,1.27
20.668124198913574,2.06,0.75,0.7,2.3
20.676098108291626,2.98,0.55,0.78,3.12
20.686373233795166,3.08,0.47,0.12,3.11
20.698634147644043,3.92,0.32,-0.24,3.94
20.706303119659424,2.31,0.09,-0.07,2.31
20.718165159225464,-1.01,-0.03,-0.39,1.08
20.726455211639404,-0.69,0.24,0.21,0.76
20.73627209663391,0.13,0.3,0.24,0.4
20.748751163482666,0.69,0.18,0.06,0.71
20.756142139434814,1.67,0.07,0.1,1.67
20.768002033233643,2.49,-0.01,-0.06,2.49
20.776198148727417,3.01,-0.2,-0.42,3.04
20.786384105682373,3.33,-0.55,-0.65,3.43
20.798830032348633,2.98,-0.62,-0.59,3.1
20.806332111358643,2.31,0.02,-0.45,2.35
20.818129062652588,1.08,1.02,0.08,1.48
20.82628607749939,-0.08,1.77,0.59,1.86
20.836305141448975,-0.48,2.1,0.86,2.31
20.848896026611328,0.23,1.95,0.99,2.19
20.856293201446533,1.45,1.45,0.12,2.05
20.868223190307617,2.26,1.62,-0.59,2.84
20.876283168792725,2.92,2.57,-0.9,3.99
20.886343955993652,3.29,4.05,-0.85,5.28
20.898820161819458,3.81,5.59,0.31,6.77
20.90636110305786,4.46,6.82,1.59,8.3
20.91825008392334,4.8,7.89,1.64,9.37
20.926377296447754,5.08,8.67,1.77,10.2
20.936345100402832,5.64,9.22,0.76,10.83
20.948955059051514,6.41,10.23,-0.15,12.07
20.95726203918457,7.44,11.87,0.11,14.0
20.968223094940186,8.98,13.95,0.51,16.59
20.977083206176758,10.7,15.96,-0.15,19.21
20.9869601726532,12.55,15.8,-3.41,20.46
20.999508142471313,14.45,15.2,-7.4,22.23
21.007087230682373,17.37,15.53,-5.96,24.05
21.018187046051025,20.35,15.44,-4.43,25.92
21.026376247406006,20.37,14.27,-6.03,25.59
21.0364031791687,14.44,11.59,-2.84,18.73
21.048795223236084,8.99,9.37,0.32,12.98
21.056432247161865,7.75,7.68,-0.8,10.94
21.068198204040527,7.21,5.54,-3.76,9.83
21.076446056365967,6.02,2.73,-4.5,7.99
21.08644413948059,4.25,0.29,-2.38,4.87
21.09889817237854,3.45,-1.1,-6.66,7.58
21.10624122619629,2.06,-3.37,-5.06,6.41
21.11815595626831,2.2,-4.67,-0.44,5.18
21.12636113166809,4.25,-5.09,0.34,6.63
21.13638710975647,6.09,-5.64,0.01,8.3
21.148913145065308,8.16,-6.09,1.06,10.23
21.156423091888428,10.38,-5.98,1.08,12.02
21.168288230895996,11.03,-5.4,-0.04,12.28
21.17650318145752,9.72,-4.4,-0.42,10.67
21.186326026916504,6.44,-3.57,-0.43,7.37
21.199048042297363,4.22,-3.29,0.24,5.35
21.20628595352173,3.38,-3.29,0.46,4.73
21.21830701828003,4.06,-3.53,0.33,5.39
21.226335048675537,4.47,-3.62,0.52,5.77
21.236330032348633,4.17,-3.36,0.88,5.42
21.248857021331787,3.59,-2.99,1.09,4.79
21.256428241729736,2.43,-2.48,0.81,3.56
21.268208980560303,1.04,-1.6,0.51,1.97
21.27645516395569,-0.13,-0.29,0.42,0.52
21.286532163619995,-1.22,1.33,-0.03,1.8
21.299029111862183,-2.38,2.58,0.12,3.51
21.306522130966187,-3.2,3.28,-0.33,4.59
21.31846523284912,-3.9,3.88,-1.66,5.74
21.326475143432617,-5.0,4.77,-2.73,7.43
21.336555004119873,-5.87,5.79,-1.79,8.43
21.34892225265503,-6.25,6.83,-0.15,9.25
21.35648822784424,-6.43,7.89,-0.71,10.2
21.368308067321777,-7.25,8.82,-1.01,11.46
21.376655101776123,-9.13,9.39,-0.95,13.13
21.38640809059143,-11.24,9.85,-0.97,14.97
21.401564121246338,-12.72,9.71,-1.2,16.04
21.407610177993774,-13.76,8.3,-3.14,16.37
21.419005155563354,-14.69,5.99,-5.65,16.84
21.42761516571045,-16.12,3.59,-6.3,17.67
21.437286138534546,-17.49,1.8,-6.86,18.87
21.451414108276367,-18.8,0.37,-6.29,19.82
21.457155227661133,-20.01,-0.77,-6.61,21.08
21.469207286834717,-20.74,-1.72,-6.19,21.71
21.478143215179443,-20.92,-2.5,-4.43,21.52
21.487274169921875,-18.51,-0.63,-1.38,18.57
21.502300262451172,-8.23,6.0,2.46,10.47
21.507299184799194,4.92,13.0,33.36,36.13
21.519184112548828,3.26,16.66,14.84,22.54
21.526782035827637,-5.56,17.62,-26.17,32.03
21.536800146102905,-2.95,12.77,-19.19,23.23
21.54918909072876,1.8,6.26,-8.68,10.85
21.55659008026123,3.68,-0.68,5.48,6.63
21.568390130996704,-2.21,-5.31,4.83,7.51
21.576564073562622,-6.74,-6.76,-2.82,9.95
21.586756229400635,-8.68,-7.82,-12.32,16.97
21.59915018081665,-13.82,-7.95,1.99,16.06
21.606635093688965,-18.5,-1.09,6.54,19.65
21.618524074554443,-19.23,1.07,1.18,19.29
21.626651287078857,-13.25,-2.05,-0.4,13.41
21.63683319091797,-4.04,-1.45,0.1,4.29
21.649253129959106,-0.45,0.64,2.08,2.22
21.656805992126465,1.17,1.84,1.56,2.68
21.668694019317627,2.75,2.06,-1.0,3.57
21.67671823501587,4.27,1.51,-3.13,5.5
21.686728954315186,4.06,0.8,-4.09,5.81
21.699458122253418,-2.76,-0.13,-2.41,3.66
21.706736087799072,-5.98,-0.35,-1.77,6.24
21.718778133392334,-2.71,0.32,0.34,2.74
21.72660207748413,1.15,0.73,0.98,1.67
21.736793994903564,3.41,0.77,1.06,3.65
21.74925708770752,3.56,0.52,1.21,3.79
21.756733179092407,3.93,0.42,-0.21,3.95
21.76869511604309,4.05,0.4,-0.38,4.08
21.776748180389404,0.74,0.08,-0.24,0.78
21.786643981933594,-1.67,-0.12,-0.22,1.68
21.79930305480957,-0.4,0.16,0.53,0.68
21.806777954101562,1.11,0.2,0.21,1.14
21.818559169769287,2.05,0.15,-0.52,2.12
21.826645135879517,2.68,0.1,-0.44,2.71
21.836835145950317,2.69,0.18,-0.32,2.71
21.849335193634033,2.08,0.42,-0.14,2.12
21.85684299468994,1.37,0.47,0.08,1.45
21.868661165237427,0.91,0.26,0.39,1.02
21.8767991065979,0.98,0.13,0.31,1.03
21.886770248413086,1.53,0.32,0.22,1.57
21.899235248565674,2.33,0.79,0.12,2.46
21.90673518180847,2.99,1.47,-0.57,3.38
21.91868829727173,3.27,2.21,-0.75,4.01
21.92674708366394,3.42,2.95,-0.82,4.59
21.93684411048889,3.23,4.09,-0.24,5.21
21.94934916496277,2.89,5.08,0.95,5.92
21.956813097000122,2.96,5.87,1.65,6.77
21.96880316734314,3.61,6.28,2.4,7.63
21.97684097290039,4.38,6.45,1.73,7.98
21.98686408996582,4.93,6.9,-0.03,8.48
21.999426126480103,5.52,8.17,-1.16,9.92
22.00684118270874,6.23,10.27,-1.37,12.08
22.0194091796875,7.07,12.98,-1.81,14.89
22.0276460647583,8.43,15.77,-2.65,18.07
22.03763508796692,10.71,17.62,-3.02,20.83
22.050137996673584,12.96,17.89,-5.33,22.72
22.057639122009277,15.09,17.1,-7.16,23.9
22.069242000579834,16.96,16.51,-6.07,24.43
22.078411102294922,17.81,14.6,-5.74,23.73
22.087545156478882,17.03,11.29,-4.71,20.96
22.101832151412964,12.26,8.74,-1.52,15.13
22.10801911354065,8.47,7.82,0.45,11.53
22.119344234466553,7.07,7.4,-3.06,10.68
22.12806797027588,5.91,5.33,-5.52,9.68
22.13758897781372,4.0,1.24,-2.24,4.74
22.15172815322876,2.76,-1.06,-4.51,5.39
22.157567977905273,1.41,-3.08,-5.47,6.43
22.169361114501953,1.46,-4.83,-1.47,5.25
22.178551197052002,3.48,-5.47,1.11,6.57
22.187610149383545,5.16,-5.9,2.45,8.21
22.20192313194275,6.87,-6.14,3.05,9.7
22.208020210266113,9.21,-5.74,2.63,11.16
22.219433069229126,10.18,-4.97,1.59,11.43
22.228082180023193,9.79,-4.13,1.0,10.67
22.237668991088867,6.98,-3.01,1.46,7.74
22.251797199249268,4.43,-2.24,2.33,5.48
22.257509231567383,4.04,-1.97,2.51,5.14
22.26933002471924,4.97,-1.84,2.79,5.98
22.27865219116211,5.48,-1.66,3.08,6.5
22.287649154663086,4.76,-1.57,3.47,6.09
22.302030086517334,3.4,-1.35,3.64,5.16
22.30813717842102,2.24,-0.81,3.87,4.54
22.31946325302124,1.41,-0.09,4.08,4.31
22.328121185302734,0.47,0.51,3.51,3.57
22.33772897720337,-0.95,1.25,2.14,2.65
22.35187530517578,-2.34,1.76,1.52,3.29
22.357558250427246,-3.43,2.2,1.25,4.26
22.369606971740723,-4.04,2.63,1.03,4.92
22.37873125076294,-4.22,2.85,0.4,5.1
22.387710094451904,-4.31,3.03,0.25,5.27
22.401915073394775,-4.61,3.36,0.06,5.7
22.408082962036133,-5.2,3.93,-0.38,6.52
22.41947913169861,-5.99,4.71,-0.79,7.66
22.428269147872925,-7.15,5.83,-0.38,9.23
22.43772602081299,-9.02,6.94,-0.8,11.4
22.451987266540527,-11.01,7.65,-0.64,13.42
22.457664012908936,-12.46,7.58,-0.77,14.6
22.46939706802368,-13.22,6.52,-3.6,15.17
22.47934103012085,-14.07,4.44,-4.72,15.49
22.487754106521606,-14.73,2.73,-5.19,15.85
22.501922130584717,-15.81,2.05,-5.32,16.8
22.508262157440186,-16.84,1.69,-6.62,18.17
22.519638061523438,-17.5,1.01,-7.9,19.22
22.528326988220215,-18.16,-0.07,-7.55,19.66
22.537721157073975,-18.3,-1.7,-6.51,19.49
22.55194115638733,-16.71,-1.36,-5.17,17.54
22.557669162750244,-8.22,4.19,-1.69,9.37
22.56957507133484,4.82,12.04,25.25,28.38
22.577653169631958,7.4,16.83,25.47,31.41
22.587470054626465,-4.24,19.42,-26.18,32.87
22.59981107711792,-1.23,17.14,-15.91,23.41
22.60713815689087,3.36,5.87,-0.23,6.76
22.618974208831787,2.16,-0.11,-4.6,5.08
22.62732219696045,-2.0,-4.16,-6.74,8.16
22.637246131896973,-5.62,-7.47,-1.29,9.43
22.649795055389404,-7.49,-8.37,-3.97,11.91
22.65729808807373,-9.65,-7.22,-5.04,13.06
22.669054985046387,-13.96,-3.16,3.11,14.64
22.67722511291504,-17.15,2.67,-0.6,17.36
22.687160968780518,-16.69,0.18,0.36,16.69
22.69964909553528,-8.48,-2.49,0.75,8.86
22.707149982452393,-1.84,-1.52,1.34,2.73
22.71901512145996,0.14,-0.1,1.83,1.83
22.727200984954834,1.62,1.26,0.45,2.1
22.737261295318604,3.16,1.79,-0.18,3.63
22.749605178833008,4.2,1.32,-0.14,4.4
22.757310152053833,2.48,0.11,-1.02,2.68
22.7691969871521,-3.55,-1.01,-1.14,3.86
22.777276039123535,-5.92,-1.23,-0.81,6.1
22.78733205795288,-3.27,-0.96,0.08,3.4
22.79964017868042,0.52,-0.28,-0.03,0.59
22.807263135910034,2.53,0.25,0.97,2.72
22.81912326812744,3.43,0.89,1.39,3.8
22.82729411125183,4.31,1.15,0.07,4.46
22.837321281433105,4.28,1.0,-0.89,4.48
22.8496150970459,1.44,0.51,-1.05,1.85
22.85730814933777,-1.3,-0.13,-0.98,1.63
22.86928129196167,-0.73,-0.55,-0.54,1.06
22.877294063568115,0.57,-0.23,-0.29,0.67
22.887283086776733,1.59,0.17,-0.46,1.66
22.89949107170105,2.1,0.37,-0.29,2.15
22.907294273376465,2.25,0.67,-0.58,2.41
22.91911506652832,2.01,0.7,-0.45,2.17
22.92728018760681,1.51,0.68,0.29,1.68
22.937405109405518,0.97,0.97,0.68,1.53
22.949522018432617,1.2,1.01,1.14,1.93
22.957340240478516,1.85,1.11,0.98,2.36
22.9691960811615,2.06,1.32,0.09,2.44
22.977312088012695,2.21,1.19,0.08,2.51
22.987421989440918,1.66,1.15,-0.54,2.09
22.99952220916748,0.42,0.81,-0.7,1.14
23.007358074188232,-0.34,0.84,0.02,0.9
23.019200086593628,-0.8,1.59,0.16,1.78
23.027372121810913,-0.8,2.39,1.16,2.77
23.037413120269775,0.31,3.73,1.98,4.23
23.049570083618164,2.02,5.82,1.37,6.31
23.057544231414795,4.56,8.22,0.73,9.42
23.069260120391846,5.88,9.59,-0.69,11.27
23.077449083328247,7.32,11.38,-1.67,13.63
23.088134288787842,9.33,15.4,-2.46,18.17
23.099594116210938,11.0,20.59,-3.26,23.57
23.107941150665283,12.76,25.3,-3.77,28.58
23.119874000549316,14.81,26.91,-4.72,31.07
23.127483129501343,16.92,21.79,-4.96,28.03
23.138089179992676,14.79,12.73,-5.38,20.24
23.151902198791504,9.34,7.49,-6.63,13.68
23.1581449508667,5.94,4.97,-11.01,13.46
23.170035123825073,3.02,1.46,-6.16,7.01
23.179169178009033,0.85,-0.58,-0.85,1.33
23.188313961029053,-0.56,-2.08,0.83,2.3
23.201877117156982,-0.4,-3.78,0.39,3.82
23.208569049835205,2.67,-5.36,0.39,6.0
23.220012187957764,6.75,-5.9,2.06,9.19
23.228743076324463,8.26,-5.3,1.81,9.97
23.238264083862305,8.1,-4.84,-0.58,9.45
23.251811027526855,7.67,-5.46,-1.97,9.61
23.258206129074097,6.73,-6.65,-2.25,9.72
23.270034074783325,5.78,-7.49,-2.2,9.71
23.28144907951355,4.68,-7.51,-1.82,9.03
23.288323163986206,2.52,-5.87,-0.67,6.42
23.30187702178955,0.42,-3.88,1.19,4.08
23.308547019958496,-1.89,-2.41,2.78,4.13
23.319969177246094,-3.74,-2.25,3.21,5.41
23.328713178634644,-5.31,-3.46,3.57,7.27
23.338282108306885,-6.49,-4.8,3.93,8.97
23.35189914703369,-7.25,-5.6,3.6,9.84
23.358131170272827,-7.79,-5.95,2.78,10.18
23.37007427215576,-7.99,-5.49,1.9,9.87
23.381319046020508,-6.51,-3.69,1.86,7.71
23.388304233551025,-5.05,-0.72,2.28,5.58
23.401961088180542,-5.37,2.1,0.78,5.81
23.408679008483887,-6.08,3.95,-1.04,7.32
23.420019149780273,-7.57,4.97,-1.63,9.2
23.42885398864746,-9.88,5.02,-2.07,11.27
23.438258171081543,-12.06,4.17,-2.68,13.03
23.452129125595093,-13.33,2.54,-3.73,14.07
23.458206176757812,-14.12,0.46,-4.48,14.82
23.470030069351196,-13.98,-1.52,-4.96,14.91
23.481613159179688,-10.7,-2.55,-4.92,12.04
23.4885311126709,-7.15,-2.43,-4.52,8.8
23.50210213661194,-5.67,-1.91,-5.47,8.1
23.50881314277649,-5.95,-1.37,-5.92,8.5
23.520036220550537,-7.64,-0.67,-5.03,9.17
23.528799057006836,-8.59,-0.61,-4.36,9.65
23.538223266601562,-8.8,0.38,-1.72,8.97
23.552075147628784,-8.08,3.47,7.47,11.53
23.558367252349854,-6.77,7.26,8.05,12.78
23.57006025314331,-5.76,10.34,3.62,12.37
23.58169412612915,-5.54,7.76,-3.52,10.16
23.588441133499146,-2.97,4.55,-11.99,13.16
23.602193117141724,0.38,0.96,-1.9,2.16
23.60869312286377,4.35,-1.59,7.88,9.14
23.620126247406006,3.49,-2.89,0.32,4.54
23.631219148635864,2.19,-3.34,-4.08,5.7
23.638297080993652,1.3,-1.96,-2.17,3.2
23.65235996246338,-1.35,0.98,-0.14,1.67
23.658283233642578,-2.04,2.6,-0.43,3.33
23.67008399963379,-1.74,2.0,-0.37,2.67
23.681578159332275,-0.9,-0.13,0.74,1.17
23.68842315673828,-1.26,-1.38,1.01,2.12
23.702380180358887,-2.19,-1.65,0.36,2.76
23.70875906944275,-2.12,-1.24,0.01,2.45
23.7202410697937,-1.81,-0.07,0.73,1.95
23.73118305206299,-0.72,0.89,0.7,1.34
23.73833417892456,0.07,0.5,-0.2,0.54
23.752346992492676,0.45,-0.37,0.05,0.58
23.758378982543945,0.64,-0.33,0.65,0.97
23.770198106765747,0.26,0.17,0.24,0.39
23.78169822692871,-0.46,0.39,0.14,0.61
23.78846311569214,-1.1,0.12,0.6,1.25
23.80225896835327,-1.11,-0.15,0.15,1.13
23.808942079544067,-0.67,-0.18,0.21,0.72
23.820219039916992,-0.43,-0.14,0.36,0.57
23.83122205734253,-0.14,-0.17,0.42,0.47
23.83841323852539,-0.2,-0.32,0.45,0.58
23.852385997772217,-0.36,-0.15,0.28,0.48
23.85835599899292,-0.35,0.16,0.49,0.62
23.870219230651855,-0.24,0.14,0.46,0.53
23.881569147109985,-0.41,-0.08,-0.3,0.51
23.888548135757446,-0.7,-0.07,-0.12,0.71
23.90254497528076,-0.95,0.04,-0.06,0.95
23.908831119537354,-0.97,0.05,-0.14,0.98
23.920379161834717,-0.63,-0.03,0.03,0.63
23.931352138519287,-0.29,-0.08,-0.11,0.32
23.938493251800537,0.12,-0.06,-0.32,0.34
23.952532291412354,0.5,0.02,-0.41,0.64
23.95845317840576,0.29,-0.02,-0.5,0.57
23.970333099365234,0.1,0.04,-0.2,0.22
23.98175621032715,-0.06,0.1,0.15,0.19
23.988550186157227,-0.16,0.06,0.06,0.18
24.002398014068604,-0.23,-0.04,0.18,0.29
24.009031295776367,-0.24,-0.09,0.59,0.64
24.020326137542725,0.11,0.05,0.43,0.44
24.03134822845459,0.36,0.18,0.2,0.44
24.03851318359375,0.32,0.13,0.11,0.36
24.052576065063477,0.31,-0.05,0.23,0.38
24.05849599838257,0.0,-0.38,0.05,0.38
24.07037115097046,-0.42,-0.24,-0.32,0.57
24.081820011138916,-0.5,0.19,-0.4,0.66
24.088691234588623,-0.4,0.09,-0.25,0.48
24.10249423980713,-0.24,-0.18,-0.15,0.33
24.10903811454773,-0.09,-0.26,0.05,0.27
24.120365142822266,-0.06,-0.23,0.12,0.26
24.131524085998535,-0.21,-0.07,-0.01,0.22
24.13858127593994,-0.27,0.16,0.17,0.35
24.152595043182373,-0.16,0.22,0.06,0.27
24.15864109992981,-0.17,0.1,-0.15,0.24
24.170388221740723,-0.21,-0.07,-0.05,0.22
24.181960105895996,-0.18,-0.1,0.05,0.21
24.188608169555664,-0.18,-0.05,-0.11,0.21
24.202627182006836,-0.07,0.0,0.02,0.07
24.209042072296143,0.2,0.06,0.15,0.25
24.220420122146606,0.21,0.08,0.03,0.22
24.231731176376343,0.04,0.0,0.12,0.12
24.238729000091553,-0.09,-0.08,0.07,0.13
24.252678155899048,-0.06,0.05,0.09,0.11
24.258723258972168,0.17,0.16,-0.03,0.23
24.270409107208252,0.17,0.02,-0.21,0.27
24.282056093215942,0.12,-0.01,-0.23,0.25
24.28877830505371,0.11,0.01,-0.09,0.14
24.302642107009888,0.14,-0.02,-0.08,0.16
24.30906915664673,0.12,-0.05,-0.18,0.22
24.320401191711426,0.06,-0.04,-0.16,0.17
24.33191418647766,0.35,-0.08,-1.1,1.15
24.33878803253174,0.17,0.26,1.15,1.19
24.352734088897705,-0.26,0.3,0.57,0.69
24.358843088150024,-0.47,-0.05,-0.47,0.66
24.370551109313965,0.05,-0.19,-0.45,0.49
24.382262229919434,0.82,0.11,0.03,0.82
24.38877511024475,0.31,0.17,0.26,0.43
24.40266227722168,-0.38,0.0,-0.18,0.42
24.409269094467163,-0.62,-0.1,-0.1,0.63
24.420358180999756,-0.62,-0.11,0.2,0.66
24.431628227233887,-1.17,-0.02,0.26,1.19
24.438740253448486,-0.68,-0.2,-0.24,0.74
24.452718257904053,-0.19,-0.24,0.16,0.34
24.458782196044922,0.14,0.09,0.04,0.17
24.470510005950928,0.21,0.27,-0.23,0.41
24.482038974761963,0.12,0.16,-0.09,0.21
24.48891019821167,0.08,-0.08,-0.08,0.13
24.50269913673401,-0.1,-0.13,-0.13,0.2
24.509281158447266,-0.09,-0.01,-0.05,0.1
24.520668029785156,0.08,0.02,-0.18,0.19
24.531647205352783,0.17,0.0,-0.15,0.22
24.538686275482178,0.11,0.0,-0.04,0.11
24.552656173706055,0.11,-0.03,0.04,0.12
24.55871295928955,0.05,0.04,0.04,0.07
24.570592164993286,-0.11,0.1,-0.06,0.16
24.58189105987549,-0.09,-0.05,0.03,0.1
24.58897113800049,-0.08,-0.09,0.0,0.12
24.602696180343628,-0.13,-0.04,-0.01,0.13
24.609289169311523,-0.05,0.07,0.09,0.12
24.620850086212158,-0.02,0.02,0.1,0.1
24.631855010986328,-0.29,-0.15,-0.12,0.34
24.638928174972534,-0.43,-0.18,-0.06,0.47
24.652752161026,-0.15,-0.09,-0.05,0.18
24.6587872505188,0.19,0.06,-0.32,0.37
24.670643091201782,0.56,0.13,-0.1,0.58
24.682199001312256,0.5,0.32,-0.07,0.59
24.68895721435547,0.21,0.36,0.01,0.41
24.702986240386963,-0.09,0.14,0.25,0.3
24.709395170211792,-0.48,-0.06,0.02,0.48
24.72071599960327,-0.64,-0.16,0.05,0.66
24.731804132461548,-0.49,-0.25,0.14,0.56
24.738879203796387,-0.37,-0.32,0.12,0.5
24.75285530090332,-0.27,-0.05,0.21,0.34
24.758912086486816,-0.21,0.27,0.23,0.41
24.770652294158936,-0.13,0.47,0.04,0.48
24.78216314315796,-0.03,0.46,-0.09,0.46
24.788966178894043,-0.12,0.07,-0.08,0.16
24.80293107032776,-0.19,-0.31,-0.14,0.38
24.809434175491333,-0.21,-0.5,-0.09,0.54
24.82069706916809,-0.22,-0.31,-0.05,0.38
24.831719160079956,-0.15,-0.08,-0.04,0.17
24.8388831615448,0.08,-0.07,0.11,0.15
24.852921962738037,0.18,-0.02,-0.04,0.18
24.858957290649414,0.24,0.2,0.03,0.31
24.87065815925598,0.29,0.27,0.23,0.45
24.88212013244629,-0.13,-0.05,-0.05,0.14
24.88905620574951,-0.25,-0.18,0.08,0.31
24.902989149093628,-0.13,-0.14,0.06,0.2
24.909438133239746,-0.08,-0.06,-0.07,0.12
24.92100429534912,0.21,-0.07,-0.04,0.22
24.932095050811768,0.19,-0.06,-0.06,0.2
24.93901300430298,-0.05,0.06,-0.07,0.1
24.953135013580322,-0.23,0.02,-0.12,0.26
24.958973169326782,-0.24,-0.18,-0.04,0.3
24.97070598602295,-0.09,-0.16,0.11,0.21
24.98210620880127,0.07,0.08,0.05,0.11
24.989092111587524,0.19,0.2,0.01,0.27
25.002974033355713,0.28,0.11,0.1,0.31
25.009541988372803,0.17,-0.01,-0.08,0.18
25.020761966705322,-0.01,-0.09,-0.01,0.09
25.031679153442383,-0.12,-0.08,0.04,0.14
25.039122104644775,0.0,-0.03,-0.08,0.08
25.05311107635498,-0.04,0.09,-0.11,0.14
25.058876037597656,-0.04,0.18,-0.14,0.23
25.070702075958252,0.01,0.18,0.06,0.19
25.082154273986816,0.09,0.18,0.09,0.22
25.089206218719482,0.05,0.14,0.1,0.17
25.103163242340088,-0.06,-0.06,0.05,0.09
25.10954999923706,-0.01,-0.13,-0.38,0.4
25.12094497680664,-0.09,-0.14,0.29,0.33
25.13219118118286,-0.24,0.01,0.07,0.25
25.139166116714478,-0.12,0.18,0.24,0.32
25.153082132339478,0.08,0.21,0.17,0.28
25.159146070480347,-0.01,-0.11,-0.26,0.28
25.170809268951416,-0.05,-0.08,-0.3,0.31
25.182555198669434,0.1,0.09,0.39,0.41
25.189205169677734,-0.23,0.01,0.04,0.23
25.203068256378174,-0.31,-0.16,-0.06,0.35
25.20957899093628,-0.25,-0.09,-0.11,0.28
25.22101616859436,-0.11,0.0,-0.05,0.12
25.23224711418152,0.15,0.06,0.04,0.16
25.23929715156555,0.22,0.19,-0.04,0.29
25.25312113761902,0.07,0.07,-0.09,0.13
25.259225130081177,-0.15,-0.06,-0.01,0.16
25.270956993103027,-0.13,-0.15,0.0,0.19
25.282499074935913,0.1,-0.17,0.18,0.26
25.289302110671997,0.12,-0.1,0.08,0.17
25.303077220916748,0.06,-0.03,-0.09,0.11
25.30962610244751,-0.1,-0.12,0.18,0.23
25.320987224578857,-0.15,-0.05,0.03,0.16
25.33198595046997,-0.01,0.36,-0.09,0.37
25.3392071723938,0.02,0.43,-0.09,0.43
25.35309600830078,0.06,0.03,-0.15,0.16
25.359172105789185,-0.12,-0.21,-0.11,0.26
25.371066093444824,-0.16,-0.24,-0.1,0.3
25.382100105285645,-0.1,-0.11,0.06,0.16
25.38933229446411,-0.08,-0.05,0.08,0.12
25.403146266937256,-0.12,0.03,0.0,0.12
25.409749031066895,-0.04,0.12,0.08,0.14
25.421072959899902,0.02,0.13,0.07,0.14
25.431846141815186,0.08,-0.04,0.03,0.09
25.439253091812134,-0.05,-0.21,0.11,0.24
25.453355073928833,-0.2,-0.16,0.03,0.25
25.459235191345215,-0.37,-0.01,-0.11,0.38
25.471004009246826,-0.08,0.05,-0.12,0.15
25.481953144073486,0.09,0.08,-0.2,0.23
25.489439964294434,0.16,0.1,-0.08,0.2
25.503283977508545,0.02,0.16,0.04,0.16
25.509721279144287,-0.23,-0.04,0.05,0.23
25.521024227142334,-0.33,-0.4,0.22,0.56
25.531841278076172,-0.36,-0.3,0.23,0.52
25.539273262023926,-0.53,0.01,0.05,0.53
25.553024291992188,-0.15,0.26,0.17,0.34
25.559134006500244,0.04,0.45,-0.07,0.45
25.571020126342773,0.17,0.27,-0.12,0.34
25.582190990447998,0.33,0.35,-0.33,0.58
25.589118003845215,0.47,0.23,0.11,0.53
25.603129148483276,0.15,-0.21,0.0,0.25
25.609775066375732,-0.21,-0.29,0.08,0.36
25.621103286743164,-0.51,-0.31,0.04,0.59
25.63163423538208,-0.57,-0.25,-0.08,0.62
25.639403104782104,-0.23,-0.01,0.04,0.23
25.653314113616943,-0.03,0.08,-0.03,0.09
25.65945529937744,0.1,0.04,0.05,0.11
25.67128896713257,-0.19,-0.14,-0.01,0.23
25.68211603164673,-0.03,-0.08,-0.12,0.14
25.6895112991333,0.02,0.03,0.08,0.08
25.70335102081299,-0.07,0.02,-0.18,0.19
25.70985507965088,-0.07,-0.04,-0.04,0.09
25.72120428085327,-0.13,0.05,-0.06,0.15
25.73165011405945,-0.01,0.17,-0.1,0.19
25.739432096481323,0.2,0.09,-0.05,0.22
25.753324031829834,0.27,0.03,-0.25,0.36
25.759462118148804,0.28,0.01,0.15,0.31
25.771389961242676,0.17,-0.1,0.09,0.21
25.782318115234375,-0.04,-0.11,-0.28,0.3
25.789550304412842,-0.02,-0.03,0.62,0.62
25.8034930229187,-0.46,0.01,0.19,0.49
25.80990505218506,-0.63,-0.05,0.12,0.64
25.821393966674805,-0.37,-0.01,0.18,0.41
25.831478118896484,-0.17,0.1,0.05,0.2
25.83944606781006,-0.05,0.06,-0.16,0.17
25.853312015533447,0.06,-0.02,0.01,0.06
25.85929822921753,-0.01,0.05,-0.06,0.07
25.871150016784668,0.0,0.04,-0.16,0.16
25.880268096923828,0.08,-0.1,-0.06,0.14
25.88950204849243,0.0,-0.18,0.02,0.18
25.903462171554565,-0.15,-0.17,0.05,0.23
25.909953117370605,-0.19,-0.09,-0.07,0.22
25.921178102493286,0.08,0.16,-0.1,0.2
25.93002223968506,0.26,0.28,-0.11,0.39
25.939475059509277,0.26,0.1,-0.02,0.27
25.953497171401978,0.24,-0.04,0.14,0.28
25.959485054016113,0.01,-0.12,-0.05,0.13
25.971473217010498,-0.04,-0.11,0.02,0.11
25.980552196502686,0.0,-0.09,0.08,0.12
25.989708185195923,-0.09,-0.13,0.01,0.15
26.003538131713867,-0.13,-0.16,0.01,0.2
26.009793281555176,-0.15,0.08,0.01,0.17
26.021377086639404,-0.18,0.2,-0.1,0.28
26.030035972595215,-0.23,0.11,-0.04,0.25
26.039556980133057,-0.12,0.24,0.01,0.26
26.053365230560303,-0.16,0.12,0.13,0.23
26.059484004974365,-0.2,-0.04,0.01,0.2
26.0713791847229,0.12,-0.24,-0.08,0.27
26.08040714263916,0.22,-0.19,0.03,0.29
26.08962106704712,0.03,0.04,0.09,0.1
26.103349208831787,-0.07,-0.03,0.14,0.15
26.109907150268555,-0.28,-0.2,0.2,0.39
26.12126111984253,-0.39,-0.04,-0.02,0.39
26.13005828857422,-0.42,0.18,-0.11,0.47
26.139652252197266,-0.14,0.08,-0.03,0.16
26.153446197509766,0.02,-0.11,-0.06,0.12
26.159579277038574,0.12,-0.07,-0.08,0.16
26.17138910293579,0.08,0.06,-0.04,0.1
26.180652141571045,0.02,0.03,-0.12,0.12
26.189667224884033,0.11,-0.04,-0.13,0.17
26.203475952148438,0.16,-0.02,-0.05,0.16
26.21009397506714,0.09,0.07,-0.02,0.11
26.221385955810547,0.02,0.12,-0.03,0.12
26.23012399673462,0.07,-0.01,0.14,0.15
26.239663124084473,0.63,-0.52,-0.35,0.88
26.253756999969482,1.16,-0.86,-0.03,1.44
26.259632110595703,0.31,-0.3,0.37,0.56
26.27141308784485,-0.14,0.1,-0.03,0.17
26.28056812286377,-0.44,0.06,0.02,0.44
26.289677143096924,-0.17,0.94,0.23,0.98
26.303555965423584,-0.42,1.31,0.04,1.37
26.310052156448364,-0.33,-0.12,0.06,0.35
26.321380138397217,-0.23,-0.84,0.01,0.87
26.330165147781372,-0.38,-0.3,-0.19,0.52
26.339744091033936,-0.23,-0.15,0.0,0.27
26.353649139404297,-0.12,-0.55,0.02,0.56
26.35968518257141,-0.15,-0.48,-0.05,0.5
26.371451139450073,0.02,0.03,0.15,0.15
26.380620002746582,-0.08,0.29,-0.01,0.3
26.389937162399292,-0.09,0.27,-0.04,0.28
26.40355110168457,0.01,0.46,0.03,0.46
26.410051107406616,0.07,0.01,-0.07,0.09
26.421545028686523,0.19,-0.78,-0.05,0.8
26.430249214172363,0.11,-0.6,-0.09,0.61
26.439743995666504,-0.22,0.22,-0.17,0.35
26.45377516746521,-0.27,0.71,-0.07,0.76
26.45973014831543,-0.12,0.23,-0.14,0.29
26.47153115272522,0.03,-0.09,0.21,0.23
26.480679988861084,0.0,0.1,0.2,0.22
26.4899320602417,0.08,-0.12,-0.07,0.16
26.503952026367188,-0.09,-0.14,-0.02,0.16
26.510215282440186,-0.05,0.53,0.13,0.54
26.52146005630493,-0.24,0.83,0.15,0.87
26.530354022979736,-0.05,0.16,-0.37,0.4
26.5397310256958,-0.07,-0.23,0.33,0.4
26.553986072540283,-0.07,0.07,-0.38,0.39
26.559926986694336,-0.18,0.12,0.17,0.27
26.572038173675537,0.0,-0.12,-0.15,0.19
26.581276178359985,-0.02,-0.21,0.2,0.29
26.59003710746765,0.15,0.03,-0.1,0.18
26.604177951812744,-0.16,0.05,0.25,0.3
26.61037015914917,-0.17,0.03,-0.25,0.3
26.621840953826904,0.0,0.51,0.05,0.51
26.630458116531372,-0.17,-0.03,-0.03,0.17
26.63986110687256,-0.08,-0.37,-0.11,0.39
26.654065132141113,-0.16,-0.47,-0.02,0.49
26.65992498397827,0.29,0.13,0.05,0.32
26.67189598083496,0.16,0.08,0.03,0.18
26.681379079818726,0.1,0.35,-0.01,0.36
26.69015598297119,-0.13,0.17,0.0,0.21
26.704100131988525,-0.11,-0.27,-0.06,0.29
26.71033811569214,0.15,-0.01,0.13,0.19
26.72189998626709,-0.31,-0.02,0.18,0.35
26.730456113815308,0.0,0.28,-0.21,0.35
26.739917278289795,-0.17,0.11,0.45,0.49
26.75423312187195,-0.17,0.29,-0.17,0.37
26.760118007659912,-0.23,-0.01,0.05,0.23
26.772154092788696,-0.31,0.03,-0.1,0.32
